{"event":"experimentStart","time":"2016-09-19T12:24:29.057Z","timestamp":6074.215}
{"event":"roundStart","roundType":"memory","time":"2016-09-19T12:24:29.065Z","timestamp":6081.475,"score":0,"sandLevel":15}
{"trial":"memory","isCollectMismatch":true,"isProbeMismatch":false,"shouldCollect":false,"memoryLoad":2,"stimInds":[1,3],"stimAngles":[135,45],"probeStimInd":1,"trigPulled":1,"responseResult":2,"reactionTime":3273.4500000000007,"timestamps":{"preCue":7273.62,"contextCue":7790.2300000000005,"firstDelay":8289.730000000001,"memoryArray":9285.95,"secondDelay":10319.77,"responseProbe":12316.220000000001,"feedbackStart":15605.890000000001,"trialEnd":17274.96}}
{"trial":"memory","isCollectMismatch":false,"isProbeMismatch":true,"shouldCollect":false,"memoryLoad":4,"stimInds":[0,3,1,5],"stimAngles":[105,135,45,75],"probeStimInd":8,"trigPulled":0,"responseResult":3,"reactionTime":3891.084999999999,"timestamps":{"preCue":17291.170000000002,"contextCue":17791.76,"firstDelay":18290.515000000003,"memoryArray":19289.02,"secondDelay":20322.170000000002,"responseProbe":22316.72,"feedbackStart":26216.065,"trialEnd":27924.775000000005}}
{"trial":"memory","isCollectMismatch":true,"isProbeMismatch":false,"shouldCollect":false,"memoryLoad":2,"stimInds":[3,9],"stimAngles":[135,45],"probeStimInd":3,"trigPulled":1,"responseResult":2,"reactionTime":4970.340000000004,"timestamps":{"preCue":27942.370000000003,"contextCue":28441.245000000003,"firstDelay":28939.835000000003,"memoryArray":29938.405000000002,"secondDelay":30954.230000000003,"responseProbe":32951.065,"feedbackStart":37929.909999999996,"trialEnd":39589.655}}
{"trial":"memory","isCollectMismatch":false,"isProbeMismatch":true,"shouldCollect":false,"memoryLoad":1,"stimInds":[6],"stimAngles":[45],"probeStimInd":8,"trigPulled":1,"responseResult":2,"reactionTime":910.2449999999953,"timestamps":{"preCue":39606.795000000006,"contextCue":40106.575000000004,"firstDelay":40605.420000000006,"memoryArray":41603.880000000005,"secondDelay":42619.560000000005,"responseProbe":44615.735,"feedbackStart":45533.41500000001,"trialEnd":47195.65}}
{"trial":"memory","isCollectMismatch":false,"isProbeMismatch":false,"shouldCollect":true,"memoryLoad":4,"stimInds":[4,5,7,8],"stimAngles":[105,135,45,75],"probeStimInd":7,"trigPulled":0,"responseResult":4,"reactionTime":4038.019999999997,"timestamps":{"preCue":47214.305,"contextCue":47711.255000000005,"firstDelay":48211.295000000006,"memoryArray":49208.08,"secondDelay":50240.035,"responseProbe":52237.405000000006,"feedbackStart":56285.240000000005,"trialEnd":57947.70500000001}}
{"trial":"memory","isCollectMismatch":true,"isProbeMismatch":false,"shouldCollect":false,"memoryLoad":4,"stimInds":[2,0,8,9],"stimAngles":[105,135,45,75],"probeStimInd":9,"trigPulled":1,"responseResult":2,"reactionTime":1708.590000000011,"timestamps":{"preCue":57962.245,"contextCue":58461.28,"firstDelay":58960.8,"memoryArray":59995.740000000005,"secondDelay":61006.905000000006,"responseProbe":63005.025,"feedbackStart":64722.685,"trialEnd":66382.51500000001}}
{"trial":"memory","isCollectMismatch":true,"isProbeMismatch":true,"shouldCollect":true,"memoryLoad":1,"stimInds":[7],"stimAngles":[105],"probeStimInd":0,"trigPulled":0,"responseResult":4,"reactionTime":5439.029999999999,"timestamps":{"preCue":66399.855,"contextCue":66898.37,"firstDelay":67397.37500000001,"memoryArray":68396.365,"secondDelay":69393.685,"responseProbe":71390.79000000001,"feedbackStart":76841.35500000001,"trialEnd":78498.09000000001}}
{"trial":"memory","isCollectMismatch":false,"isProbeMismatch":true,"shouldCollect":false,"memoryLoad":2,"stimInds":[8,3],"stimAngles":[45,75],"probeStimInd":9,"trigPulled":1,"responseResult":2,"reactionTime":2673.6900000000023,"timestamps":{"preCue":78514.585,"contextCue":79013.075,"firstDelay":79514.285,"memoryArray":80510.3,"secondDelay":81509,"responseProbe":83506.78000000001,"feedbackStart":86189.43000000001,"trialEnd":87850.695}}
{"trial":"memory","isCollectMismatch":true,"isProbeMismatch":true,"shouldCollect":true,"memoryLoad":2,"stimInds":[4,8],"stimAngles":[45,75],"probeStimInd":7,"trigPulled":1,"responseResult":1,"reactionTime":1374.550000000003,"timestamps":{"preCue":87867.82,"contextCue":88365.90000000001,"firstDelay":88866.40000000001,"memoryArray":89865.32500000001,"secondDelay":90860.975,"responseProbe":92858.955,"feedbackStart":94242.11000000002,"trialEnd":95902.96500000001}}
{"trial":"memory","isCollectMismatch":true,"isProbeMismatch":false,"shouldCollect":false,"memoryLoad":4,"stimInds":[7,0,6,1],"stimAngles":[105,135,45,75],"probeStimInd":6,"trigPulled":0,"responseResult":3,"reactionTime":2425.320000000007,"timestamps":{"preCue":95920.12500000001,"contextCue":96420.375,"firstDelay":96918.95000000001,"memoryArray":97917.89000000001,"secondDelay":98917.12000000001,"responseProbe":100911.79500000001,"feedbackStart":103343.90500000001,"trialEnd":105008.54500000001}}
{"trial":"memory","isCollectMismatch":false,"isProbeMismatch":true,"shouldCollect":false,"memoryLoad":2,"stimInds":[0,7],"stimAngles":[105,45],"probeStimInd":8,"trigPulled":1,"responseResult":2,"reactionTime":2038.9400000000023,"timestamps":{"preCue":105022.55,"contextCue":105523.52500000001,"firstDelay":106021.24,"memoryArray":107019.095,"secondDelay":108018.89500000002,"responseProbe":110015.44000000002,"feedbackStart":112066.86,"trialEnd":113728.24000000002}}
{"trial":"memory","isCollectMismatch":false,"isProbeMismatch":true,"shouldCollect":false,"memoryLoad":1,"stimInds":[8],"stimAngles":[135],"probeStimInd":4,"trigPulled":0,"responseResult":3,"reactionTime":2574.2500000000146,"timestamps":{"preCue":113743.43500000001,"contextCue":114242.82500000001,"firstDelay":114740.255,"memoryArray":115739.73500000002,"secondDelay":116738.3,"responseProbe":118735.34500000002,"feedbackStart":121322.955,"trialEnd":123011.01500000001}}
{"trial":"memory","isCollectMismatch":true,"isProbeMismatch":true,"shouldCollect":true,"memoryLoad":4,"stimInds":[1,6,2,8],"stimAngles":[105,135,45,75],"probeStimInd":5,"trigPulled":1,"responseResult":1,"reactionTime":2687.685000000027,"timestamps":{"preCue":123030.08500000002,"contextCue":123527.76000000001,"firstDelay":124027.24,"memoryArray":125026.24000000002,"secondDelay":126040.38000000002,"responseProbe":128039.55500000001,"feedbackStart":130736.03,"trialEnd":132396.87}}
{"trial":"memory","isCollectMismatch":false,"isProbeMismatch":true,"shouldCollect":false,"memoryLoad":2,"stimInds":[8,1],"stimAngles":[45,75],"probeStimInd":7,"trigPulled":0,"responseResult":3,"reactionTime":4220.975000000006,"timestamps":{"preCue":132414.51,"contextCue":132912.79,"firstDelay":133412.38,"memoryArray":134411.16000000003,"secondDelay":135410.26,"responseProbe":137406.45500000002,"feedbackStart":141635.24000000002,"trialEnd":143312.92}}
{"trial":"memory","isCollectMismatch":false,"isProbeMismatch":true,"shouldCollect":false,"memoryLoad":1,"stimInds":[9],"stimAngles":[45],"probeStimInd":7,"trigPulled":1,"responseResult":2,"reactionTime":2210.014999999985,"timestamps":{"preCue":143331.05000000002,"contextCue":143829.18500000003,"firstDelay":144329.53,"memoryArray":145327.135,"secondDelay":146326.12,"responseProbe":148322.02500000002,"feedbackStart":150541.15000000002,"trialEnd":152199.745}}
{"trial":"memory","isCollectMismatch":false,"isProbeMismatch":false,"shouldCollect":true,"memoryLoad":1,"stimInds":[0],"stimAngles":[105],"probeStimInd":0,"trigPulled":0,"responseResult":4,"reactionTime":2054.9100000000326,"timestamps":{"preCue":152216.70500000002,"contextCue":152715.38500000004,"firstDelay":153215.04,"memoryArray":154212.49500000002,"secondDelay":155212.75,"responseProbe":157210.695,"feedbackStart":159277.59,"trialEnd":160936.95500000002}}
{"trial":"memory","isCollectMismatch":true,"isProbeMismatch":true,"shouldCollect":true,"memoryLoad":2,"stimInds":[0,2],"stimAngles":[45,75],"probeStimInd":6,"trigPulled":1,"responseResult":1,"reactionTime":3920.3850000000093,"timestamps":{"preCue":160953.27500000002,"contextCue":161452.23500000002,"firstDelay":161951.03500000003,"memoryArray":162951.65,"secondDelay":163949.325,"responseProbe":165946.2,"feedbackStart":169875.12,"trialEnd":171540.975}}
{"trial":"memory","isCollectMismatch":true,"isProbeMismatch":false,"shouldCollect":false,"memoryLoad":4,"stimInds":[4,5,1,7],"stimAngles":[105,135,45,75],"probeStimInd":1,"trigPulled":1,"responseResult":2,"reactionTime":9399.459999999992,"timestamps":{"preCue":171554.065,"contextCue":172052.565,"firstDelay":172556.225,"memoryArray":173567.64,"secondDelay":174564.45,"responseProbe":176561.27000000002,"feedbackStart":185969.12500000003,"trialEnd":187645.035}}
{"trial":"memory","isCollectMismatch":true,"isProbeMismatch":false,"shouldCollect":false,"memoryLoad":4,"stimInds":[7,3,5,9],"stimAngles":[105,135,45,75],"probeStimInd":7,"trigPulled":0,"responseResult":3,"reactionTime":3486.790000000008,"timestamps":{"preCue":187662.58500000002,"contextCue":188161.21500000003,"firstDelay":188660.43000000002,"memoryArray":189660.37500000003,"secondDelay":190673.14500000002,"responseProbe":192672.10000000003,"feedbackStart":196168.60000000003,"trialEnd":197846.73500000002}}
{"trial":"memory","isCollectMismatch":false,"isProbeMismatch":true,"shouldCollect":false,"memoryLoad":4,"stimInds":[8,5,4,7],"stimAngles":[105,135,45,75],"probeStimInd":1,"trigPulled":1,"responseResult":2,"reactionTime":3041.085000000021,"timestamps":{"preCue":197863.815,"contextCue":198363.11000000002,"firstDelay":198861.93500000003,"memoryArray":199858.94000000003,"secondDelay":200858.71500000003,"responseProbe":202855.15500000003,"feedbackStart":205904.77000000002,"trialEnd":207581.86500000002}}
{"event":"roundStart","roundType":"bonus","time":"2016-09-19T12:27:50.569Z","timestamp":207584.56500000003,"score":0,"sandLevel":0}
{"trial":"bonus","stimInds":[7],"rewardProbs":[0.8],"rewardPotential":[1],"rewardLevels":[-1,-1,-1],"reactionTime":12724.164999999979,"chosenStim":0,"timestamps":{"startFlyIn":208605.65000000002,"endFlyIn":209145.09,"feedbackStart":221330.30000000002,"trialEnd":221575.68500000003},"fireEvents":[{"aladdinX":210.04954284676683,"aladdinY":885.045647082907,"t":220579.16000000003}],"stimX":1200,"stimY":[880]}
{"event":"roundStart","roundType":"memory","time":"2016-09-19T12:28:04.563Z","timestamp":221577.76,"score":0,"sandLevel":15}
{"trial":"memory","isCollectMismatch":false,"isProbeMismatch":false,"shouldCollect":true,"memoryLoad":1,"stimInds":[5],"stimAngles":[105],"probeStimInd":5,"trigPulled":1,"responseResult":1,"reactionTime":909.5100000000093,"timestamps":{"preCue":222575.43500000003,"contextCue":223073.74500000002,"firstDelay":223574.39500000002,"memoryArray":224572.795,"secondDelay":225570.90000000002,"responseProbe":227567.77000000002,"feedbackStart":228485.14000000004,"trialEnd":230147.48500000002}}
{"trial":"memory","isCollectMismatch":false,"isProbeMismatch":false,"shouldCollect":true,"memoryLoad":2,"stimInds":[4,5],"stimAngles":[105,75],"probeStimInd":5,"trigPulled":1,"responseResult":1,"reactionTime":4005.7750000000233,"timestamps":{"preCue":230163.835,"contextCue":230661.27500000002,"firstDelay":231161.23,"memoryArray":232158.99500000002,"secondDelay":233158.35500000004,"responseProbe":235155.17500000002,"feedbackStart":239167.40500000003,"trialEnd":240830.035}}
{"trial":"memory","isCollectMismatch":true,"isProbeMismatch":true,"shouldCollect":true,"memoryLoad":1,"stimInds":[9],"stimAngles":[135],"probeStimInd":6,"trigPulled":0,"responseResult":4,"reactionTime":2823.0199999999895,"timestamps":{"preCue":240846.56500000003,"contextCue":241345.85500000004,"firstDelay":241846.76500000004,"memoryArray":242844.73000000004,"secondDelay":243841.695,"responseProbe":245839.14500000002,"feedbackStart":248669.92,"trialEnd":250330.58000000002}}
{"trial":"memory","isCollectMismatch":false,"isProbeMismatch":false,"shouldCollect":true,"memoryLoad":4,"stimInds":[2,7,8,5],"stimAngles":[105,135,45,75],"probeStimInd":5,"trigPulled":1,"responseResult":1,"reactionTime":1426.7049999999872,"timestamps":{"preCue":250349.54500000004,"contextCue":250847.86500000002,"firstDelay":251347.03000000003,"memoryArray":252345.67500000002,"secondDelay":253344.34000000003,"responseProbe":255340.595,"feedbackStart":256774.32500000004,"trialEnd":258435.68500000003}}
{"trial":"memory","isCollectMismatch":true,"isProbeMismatch":false,"shouldCollect":false,"memoryLoad":2,"stimInds":[6,0],"stimAngles":[45,75],"probeStimInd":6,"trigPulled":1,"responseResult":2,"reactionTime":13857.140000000014,"timestamps":{"preCue":258451.97000000003,"contextCue":258953.69500000004,"firstDelay":259450.50000000003,"memoryArray":260450.07000000004,"secondDelay":261447.54,"responseProbe":263445.42000000004,"feedbackStart":277309.04500000004,"trialEnd":278970.38000000006}}
{"trial":"memory","isCollectMismatch":false,"isProbeMismatch":true,"shouldCollect":false,"memoryLoad":2,"stimInds":[6,2],"stimAngles":[135,45],"probeStimInd":9,"trigPulled":0,"responseResult":3,"reactionTime":3192.804999999935,"timestamps":{"preCue":278987.04500000004,"contextCue":279487.12,"firstDelay":279985.80000000005,"memoryArray":280984.335,"secondDelay":281983.61,"responseProbe":283979.525,"feedbackStart":287182.35500000004,"trialEnd":288842.055}}
{"trial":"memory","isCollectMismatch":true,"isProbeMismatch":false,"shouldCollect":false,"memoryLoad":1,"stimInds":[0],"stimAngles":[75],"probeStimInd":0,"trigPulled":0,"responseResult":3,"reactionTime":6001.400000000023,"timestamps":{"preCue":288856.34,"contextCue":289354.93000000005,"firstDelay":289854.805,"memoryArray":290852.15,"secondDelay":291851.895,"responseProbe":293848.24000000005,"feedbackStart":299858.525,"trialEnd":301519.855}}
{"trial":"memory","isCollectMismatch":true,"isProbeMismatch":false,"shouldCollect":false,"memoryLoad":4,"stimInds":[2,1,0,8],"stimAngles":[105,135,45,75],"probeStimInd":0,"trigPulled":0,"responseResult":3,"reactionTime":7535.965000000026,"timestamps":{"preCue":301536.78,"contextCue":302038.17000000004,"firstDelay":302533.315,"memoryArray":303532.86000000004,"secondDelay":304532.24500000005,"responseProbe":306527.62,"feedbackStart":314070.655,"trialEnd":315731.375}}
{"trial":"memory","isCollectMismatch":false,"isProbeMismatch":false,"shouldCollect":true,"memoryLoad":4,"stimInds":[3,4,8,6],"stimAngles":[105,135,45,75],"probeStimInd":6,"trigPulled":1,"responseResult":1,"reactionTime":5086.679999999993,"timestamps":{"preCue":315747.63,"contextCue":316245.68000000005,"firstDelay":316748.015,"memoryArray":317744.76000000007,"secondDelay":318742.19500000007,"responseProbe":320740.50500000006,"feedbackStart":325834.085,"trialEnd":327495.05000000005}}
{"trial":"memory","isCollectMismatch":true,"isProbeMismatch":false,"shouldCollect":false,"memoryLoad":1,"stimInds":[0],"stimAngles":[75],"probeStimInd":0,"trigPulled":1,"responseResult":2,"reactionTime":12189.674999999988,"timestamps":{"preCue":327512.10500000004,"contextCue":328013.44,"firstDelay":328513.83,"memoryArray":329510.2700000001,"secondDelay":330509.625,"responseProbe":332504.905,"feedbackStart":344706.515,"trialEnd":346367.965}}
{"trial":"memory","isCollectMismatch":false,"isProbeMismatch":true,"shouldCollect":false,"memoryLoad":2,"stimInds":[4,3],"stimAngles":[45,75],"probeStimInd":6,"trigPulled":0,"responseResult":3,"reactionTime":2606.694999999949,"timestamps":{"preCue":346383.64,"contextCue":346884.775,"firstDelay":347381.57,"memoryArray":348381.32,"secondDelay":349380.31,"responseProbe":351376.29000000004,"feedbackStart":353993.75000000006,"trialEnd":355668.22500000003}}
{"trial":"memory","isCollectMismatch":false,"isProbeMismatch":true,"shouldCollect":false,"memoryLoad":2,"stimInds":[9,4],"stimAngles":[135,45],"probeStimInd":0,"trigPulled":1,"responseResult":2,"reactionTime":2643.0200000000186,"timestamps":{"preCue":355685.92,"contextCue":356184.12500000006,"firstDelay":356685.705,"memoryArray":357682.69000000006,"secondDelay":358681.96,"responseProbe":360676.91500000004,"feedbackStart":363328.145,"trialEnd":364987.87500000006}}
{"trial":"memory","isCollectMismatch":true,"isProbeMismatch":true,"shouldCollect":true,"memoryLoad":1,"stimInds":[6],"stimAngles":[135],"probeStimInd":1,"trigPulled":1,"responseResult":1,"reactionTime":4154.710000000021,"timestamps":{"preCue":365004.4,"contextCue":365520.205,"firstDelay":366020.41500000004,"memoryArray":367019.515,"secondDelay":368017.015,"responseProbe":370014.09500000003,"feedbackStart":374178.455,"trialEnd":375838.05}}
{"trial":"memory","isCollectMismatch":false,"isProbeMismatch":true,"shouldCollect":false,"memoryLoad":2,"stimInds":[5,0],"stimAngles":[105,135],"probeStimInd":6,"trigPulled":0,"responseResult":3,"reactionTime":995.7000000000116,"timestamps":{"preCue":375855.48000000004,"contextCue":376353.835,"firstDelay":376852.8900000001,"memoryArray":377852.28,"secondDelay":378849.835,"responseProbe":380846.48000000004,"feedbackStart":381849.645,"trialEnd":383509.47500000003}}
{"trial":"memory","isCollectMismatch":true,"isProbeMismatch":false,"shouldCollect":false,"memoryLoad":1,"stimInds":[9],"stimAngles":[135],"probeStimInd":9,"trigPulled":0,"responseResult":3,"reactionTime":1362.1350000000675,"timestamps":{"preCue":383526.41500000004,"contextCue":384024.655,"firstDelay":384527.26,"memoryArray":385522.96,"secondDelay":386523.84,"responseProbe":388518.085,"feedbackStart":389889.245,"trialEnd":391545.965}}
{"trial":"memory","isCollectMismatch":true,"isProbeMismatch":false,"shouldCollect":false,"memoryLoad":1,"stimInds":[2],"stimAngles":[75],"probeStimInd":2,"trigPulled":0,"responseResult":3,"reactionTime":1777.2150000000256,"timestamps":{"preCue":391563.5150000001,"contextCue":392080.35000000003,"firstDelay":392578.46,"memoryArray":393577.895,"secondDelay":394576.25,"responseProbe":396572.56,"feedbackStart":398357.36000000004,"trialEnd":400016.48500000004}}
{"trial":"memory","isCollectMismatch":false,"isProbeMismatch":false,"shouldCollect":true,"memoryLoad":4,"stimInds":[1,4,0,9],"stimAngles":[105,135,45,75],"probeStimInd":1,"trigPulled":0,"responseResult":4,"reactionTime":5418.85500000004,"timestamps":{"preCue":400034.23000000004,"contextCue":400534.45000000007,"firstDelay":401032.66500000004,"memoryArray":402031.89,"secondDelay":403031.43500000006,"responseProbe":405027.49000000005,"feedbackStart":410454.0250000001,"trialEnd":412115.54500000004}}
{"trial":"memory","isCollectMismatch":true,"isProbeMismatch":false,"shouldCollect":false,"memoryLoad":1,"stimInds":[6],"stimAngles":[45],"probeStimInd":6,"trigPulled":0,"responseResult":3,"reactionTime":2586.990000000049,"timestamps":{"preCue":412131.965,"contextCue":412631.19000000006,"firstDelay":413131.35000000003,"memoryArray":414130.075,"secondDelay":415127.63,"responseProbe":417126.63000000006,"feedbackStart":419722.28,"trialEnd":421399.82}}
{"trial":"memory","isCollectMismatch":false,"isProbeMismatch":false,"shouldCollect":true,"memoryLoad":4,"stimInds":[9,0,3,2],"stimAngles":[105,135,45,75],"probeStimInd":3,"trigPulled":1,"responseResult":1,"reactionTime":5955.100000000035,"timestamps":{"preCue":421417.17500000005,"contextCue":421917.73000000004,"firstDelay":422415.65,"memoryArray":423414.59,"secondDelay":424412.48500000004,"responseProbe":426409.32000000007,"feedbackStart":432374.19500000007,"trialEnd":434048.15}}
{"trial":"memory","isCollectMismatch":false,"isProbeMismatch":false,"shouldCollect":true,"memoryLoad":1,"stimInds":[2],"stimAngles":[75],"probeStimInd":2,"trigPulled":1,"responseResult":1,"reactionTime":974.3800000000047,"timestamps":{"preCue":434065.35000000003,"contextCue":434565.21,"firstDelay":435063.81500000006,"memoryArray":436077.325,"secondDelay":437077.825,"responseProbe":439075.905,"feedbackStart":440059.29000000004,"trialEnd":441719.43000000005}}
{"event":"roundStart","roundType":"bonus","time":"2016-09-19T12:31:44.705Z","timestamp":441721.54500000004,"score":0,"sandLevel":27}
{"trial":"bonus","stimInds":[8,4,6],"rewardProbs":[0.8,0.4,0.8],"rewardPotential":[2,1,0],"rewardLevels":[2,1,0],"reactionTime":4004.399999999965,"chosenStim":2,"timestamps":{"startFlyIn":442743.03500000003,"endFlyIn":443268.37500000006,"feedbackStart":446755.92500000005,"trialEnd":447012.66000000003},"fireEvents":[{"aladdinX":320.2250219589838,"aladdinY":817.4087116312735,"t":446097.94500000007}],"stimX":1200,"stimY":[200,540,880]}
{"trial":"bonus","stimInds":[4],"rewardProbs":[0.4],"rewardPotential":[1],"rewardLevels":[-1,-1,-1],"reactionTime":1509.954999999958,"chosenStim":0,"timestamps":{"startFlyIn":447028.155,"endFlyIn":447527.655,"feedbackStart":448531.49500000005,"trialEnd":448775.565},"fireEvents":[{"aladdinX":368.7876052862772,"aladdinY":471.6461417269461,"t":447931.585}],"stimX":1200,"stimY":[540]}
{"trial":"bonus","stimInds":[2,4],"rewardProbs":[0.2,0.4],"rewardPotential":[2,1],"rewardLevels":[-1,1,-1],"reactionTime":3492.460000000021,"chosenStim":0,"timestamps":{"startFlyIn":448792.765,"endFlyIn":449307.25,"feedbackStart":452275.66000000003,"trialEnd":452519.67000000004},"fireEvents":[{"aladdinX":382.5855721241602,"aladdinY":976.516822893595,"t":450358.60000000003},{"aladdinX":385.5709965235361,"aladdinY":593.5252925944083,"t":451688.19500000007}],"stimX":1200,"stimY":[540,880]}
{"trial":"bonus","stimInds":[5],"rewardProbs":[0.4],"rewardPotential":[2],"rewardLevels":[2,-1,-1],"reactionTime":1512.3249999999534,"chosenStim":0,"timestamps":{"startFlyIn":452537.48500000004,"endFlyIn":453053.73500000004,"feedbackStart":454041.22000000003,"trialEnd":454282.72500000003},"fireEvents":[{"aladdinX":385.97459685865726,"aladdinY":564.5926621746771,"t":453437.445}],"stimX":1200,"stimY":[540]}
{"trial":"bonus","stimInds":[6,4],"rewardProbs":[0.8,0.4],"rewardPotential":[0,1],"rewardLevels":[0,1,-1],"reactionTime":2194.8700000000536,"chosenStim":0,"timestamps":{"startFlyIn":454299.69500000007,"endFlyIn":454800.22000000003,"feedbackStart":456486.23500000004,"trialEnd":456732.05},"fireEvents":[{"aladdinX":391.14206624094334,"aladdinY":234.92912741420196,"t":455882.955}],"stimX":1200,"stimY":[200,880]}
{"trial":"bonus","stimInds":[4],"rewardProbs":[0.4],"rewardPotential":[1],"rewardLevels":[1,-1,-1],"reactionTime":1825.2000000000116,"chosenStim":0,"timestamps":{"startFlyIn":456746.66500000004,"endFlyIn":457247.63,"feedbackStart":458567.31,"trialEnd":458811.635},"fireEvents":[{"aladdinX":391.14206624094334,"aladdinY":583.9319533300154,"t":457980.55000000005}],"stimX":1200,"stimY":[540]}
{"trial":"bonus","stimInds":[4],"rewardProbs":[0.4],"rewardPotential":[1],"rewardLevels":[1,-1,-1],"reactionTime":1576.2699999999604,"chosenStim":0,"timestamps":{"startFlyIn":458827.63500000007,"endFlyIn":459325.88000000006,"feedbackStart":460393.48000000004,"trialEnd":460641.4100000001},"fireEvents":[{"aladdinX":391.14206624094334,"aladdinY":196.17503168103622,"t":459811.44500000007}],"stimX":1200,"stimY":[200]}
{"trial":"bonus","stimInds":[5,7],"rewardProbs":[0.4,0.8],"rewardPotential":[2,1],"rewardLevels":[-1,-1,-1],"reactionTime":1726.725000000035,"chosenStim":0,"timestamps":{"startFlyIn":460656.515,"endFlyIn":461157.205,"feedbackStart":462376.41000000003,"trialEnd":462621.48500000004},"fireEvents":[{"aladdinX":444.4547994143137,"aladdinY":142.8005051803343,"t":461822.63000000006}],"stimX":1200,"stimY":[200,880]}
{"trial":"bonus","stimInds":[0],"rewardProbs":[0.2],"rewardPotential":[0],"rewardLevels":[-1,-1,-1],"reactionTime":1211.7900000000373,"chosenStim":0,"timestamps":{"startFlyIn":462636.84500000003,"endFlyIn":463153.27,"feedbackStart":463842.60000000003,"trialEnd":464085.185},"fireEvents":[{"aladdinX":444.4547994143137,"aladdinY":142.8005051803343,"t":463289.385}],"stimX":1200,"stimY":[200]}
{"trial":"bonus","stimInds":[5],"rewardProbs":[0.4],"rewardPotential":[2],"rewardLevels":[-1,-1,-1],"reactionTime":1795.399999999965,"chosenStim":0,"timestamps":{"startFlyIn":464101.61500000005,"endFlyIn":464603.75000000006,"feedbackStart":465888.4600000001,"trialEnd":466131.385},"fireEvents":[{"aladdinX":444.4547994143137,"aladdinY":560.3529533934347,"t":465350.99000000005}],"stimX":1200,"stimY":[540]}
{"trial":"bonus","stimInds":[6],"rewardProbs":[0.8],"rewardPotential":[0],"rewardLevels":[-1,-1,-1],"reactionTime":1113.9249999999884,"chosenStim":0,"timestamps":{"startFlyIn":466149.69500000007,"endFlyIn":466649.395,"feedbackStart":467252.375,"trialEnd":467496.62500000006},"fireEvents":[{"aladdinX":444.4547994143137,"aladdinY":560.3529533934347,"t":466716.17500000005}],"stimX":1200,"stimY":[540]}
{"trial":"bonus","stimInds":[8,0,5],"rewardProbs":[0.8,0.2,0.4],"rewardPotential":[2,0,2],"rewardLevels":[-1,0,-1],"reactionTime":2776.445000000007,"chosenStim":0,"timestamps":{"startFlyIn":467512.87500000006,"endFlyIn":468012.015,"feedbackStart":470281.10500000004,"trialEnd":470523.8400000001},"fireEvents":[{"aladdinX":789.4780935055384,"aladdinY":247.28817762849258,"t":470028.69000000006}],"stimX":1200,"stimY":[200,540,880]}
{"event":"roundStart","roundType":"memory","time":"2016-09-19T12:32:13.512Z","timestamp":470527.89,"score":500,"sandLevel":15}
{"trial":"memory","isCollectMismatch":false,"isProbeMismatch":false,"shouldCollect":true,"memoryLoad":1,"stimInds":[1],"stimAngles":[45],"probeStimInd":1,"trigPulled":1,"responseResult":1,"reactionTime":2809.1900000000023,"timestamps":{"preCue":471527.61500000005,"contextCue":472022.635,"firstDelay":472523.58,"memoryArray":473520.4650000001,"secondDelay":474519.70000000007,"responseProbe":476515.005,"feedbackStart":479336.2,"trialEnd":480991.92000000004}}
{"trial":"memory","isCollectMismatch":false,"isProbeMismatch":false,"shouldCollect":true,"memoryLoad":1,"stimInds":[0],"stimAngles":[135],"probeStimInd":0,"trigPulled":1,"responseResult":1,"reactionTime":778.210000000021,"timestamps":{"preCue":481008.34500000003,"contextCue":481509.98000000004,"firstDelay":482007.89,"memoryArray":483006.335,"secondDelay":484005.06,"responseProbe":486000.86500000005,"feedbackStart":486785.365,"trialEnd":488447.16500000004}}
{"trial":"memory","isCollectMismatch":false,"isProbeMismatch":false,"shouldCollect":true,"memoryLoad":2,"stimInds":[0,4],"stimAngles":[105,75],"probeStimInd":4,"trigPulled":1,"responseResult":1,"reactionTime":775.6500000000233,"timestamps":{"preCue":488463.96,"contextCue":488964.31,"firstDelay":489461.97500000003,"memoryArray":490463.96,"secondDelay":491460.885,"responseProbe":493456.46,"feedbackStart":494244.26000000007,"trialEnd":495902.215}}
{"trial":"memory","isCollectMismatch":false,"isProbeMismatch":true,"shouldCollect":false,"memoryLoad":4,"stimInds":[4,1,9,6],"stimAngles":[105,135,45,75],"probeStimInd":5,"trigPulled":0,"responseResult":3,"reactionTime":1491.7149999999674,"timestamps":{"preCue":495921.20000000007,"contextCue":496419.97500000003,"firstDelay":496918.575,"memoryArray":497915.93000000005,"secondDelay":498914.485,"responseProbe":500912.13000000006,"feedbackStart":502414.3300000001,"trialEnd":504073.50500000006}}
{"trial":"memory","isCollectMismatch":true,"isProbeMismatch":true,"shouldCollect":true,"memoryLoad":1,"stimInds":[7],"stimAngles":[105],"probeStimInd":1,"trigPulled":1,"responseResult":1,"reactionTime":2040.1449999999604,"timestamps":{"preCue":504090.23000000004,"contextCue":504590.39,"firstDelay":505089.37000000005,"memoryArray":506086.16500000004,"secondDelay":507084.9650000001,"responseProbe":509083.8900000001,"feedbackStart":511132.94,"trialEnd":512792.865}}
{"trial":"memory","isCollectMismatch":false,"isProbeMismatch":false,"shouldCollect":true,"memoryLoad":1,"stimInds":[6],"stimAngles":[135],"probeStimInd":6,"trigPulled":1,"responseResult":1,"reactionTime":844.6700000001001,"timestamps":{"preCue":512810.61,"contextCue":513308.74000000005,"firstDelay":513808.525,"memoryArray":514806.815,"secondDelay":515807.545,"responseProbe":517802.2950000001,"feedbackStart":518656.31000000006,"trialEnd":520315.2100000001}}
{"trial":"memory","isCollectMismatch":true,"isProbeMismatch":true,"shouldCollect":true,"memoryLoad":2,"stimInds":[9,3],"stimAngles":[135,45],"probeStimInd":7,"trigPulled":0,"responseResult":4,"reactionTime":1742.9550000000745,"timestamps":{"preCue":520333.44,"contextCue":520831.25000000006,"firstDelay":521331.76,"memoryArray":522332.7700000001,"secondDelay":523329.7100000001,"responseProbe":525324.68,"feedbackStart":527076.595,"trialEnd":528737.8200000001}}
{"trial":"memory","isCollectMismatch":true,"isProbeMismatch":true,"shouldCollect":true,"memoryLoad":4,"stimInds":[2,5,6,0],"stimAngles":[105,135,45,75],"probeStimInd":8,"trigPulled":0,"responseResult":4,"reactionTime":2475.340000000084,"timestamps":{"preCue":528752.02,"contextCue":529252.505,"firstDelay":529752.3950000001,"memoryArray":530748.435,"secondDelay":531747.9450000001,"responseProbe":533744.5650000001,"feedbackStart":536233.9800000001,"trialEnd":537906.135}}
{"trial":"memory","isCollectMismatch":true,"isProbeMismatch":false,"shouldCollect":false,"memoryLoad":1,"stimInds":[6],"stimAngles":[135],"probeStimInd":6,"trigPulled":0,"responseResult":3,"reactionTime":1659.405000000028,"timestamps":{"preCue":537921.795,"contextCue":538419.165,"firstDelay":538920.875,"memoryArray":539919.93,"secondDelay":540916.925,"responseProbe":542913.4,"feedbackStart":544581.6849999999,"trialEnd":546242.11}}
{"trial":"memory","isCollectMismatch":true,"isProbeMismatch":true,"shouldCollect":true,"memoryLoad":1,"stimInds":[0],"stimAngles":[75],"probeStimInd":6,"trigPulled":1,"responseResult":1,"reactionTime":1028.015000000014,"timestamps":{"preCue":546257.3500000001,"contextCue":546757.47,"firstDelay":547256.5650000001,"memoryArray":548255.93,"secondDelay":549253.2550000001,"responseProbe":551251.01,"feedbackStart":552288.92,"trialEnd":553946.455}}
{"trial":"memory","isCollectMismatch":true,"isProbeMismatch":false,"shouldCollect":false,"memoryLoad":2,"stimInds":[8,7],"stimAngles":[135,75],"probeStimInd":7,"trigPulled":0,"responseResult":3,"reactionTime":1893.1049999999814,"timestamps":{"preCue":553963.2200000001,"contextCue":554461.79,"firstDelay":554962.8,"memoryArray":555959.775,"secondDelay":556958.81,"responseProbe":558955.54,"feedbackStart":560858.2650000001,"trialEnd":562515.895}}
{"trial":"memory","isCollectMismatch":false,"isProbeMismatch":false,"shouldCollect":true,"memoryLoad":1,"stimInds":[2],"stimAngles":[135],"probeStimInd":2,"trigPulled":1,"responseResult":1,"reactionTime":644.0899999999674,"timestamps":{"preCue":562533.925,"contextCue":563032.675,"firstDelay":563533.535,"memoryArray":564530.28,"secondDelay":565527.7450000001,"responseProbe":567525.71,"feedbackStart":568182.67,"trialEnd":569839.1200000001}}
{"trial":"memory","isCollectMismatch":true,"isProbeMismatch":false,"shouldCollect":false,"memoryLoad":4,"stimInds":[9,6,7,3],"stimAngles":[105,135,45,75],"probeStimInd":7,"trigPulled":1,"responseResult":2,"reactionTime":3888.719999999972,"timestamps":{"preCue":569855.8350000001,"contextCue":570355.1100000001,"firstDelay":570854.2,"memoryArray":571853.765,"secondDelay":572850.855,"responseProbe":574848.0850000001,"feedbackStart":578746.51,"trialEnd":580406.78}}
{"trial":"memory","isCollectMismatch":true,"isProbeMismatch":true,"shouldCollect":true,"memoryLoad":2,"stimInds":[8,6],"stimAngles":[105,75],"probeStimInd":7,"trigPulled":1,"responseResult":1,"reactionTime":1125.6049999999814,"timestamps":{"preCue":580422.92,"contextCue":580921.805,"firstDelay":581420.56,"memoryArray":582418.625,"secondDelay":583416.29,"responseProbe":585415.8950000001,"feedbackStart":586550.865,"trialEnd":588227.01}}
{"trial":"memory","isCollectMismatch":false,"isProbeMismatch":true,"shouldCollect":false,"memoryLoad":1,"stimInds":[1],"stimAngles":[135],"probeStimInd":0,"trigPulled":0,"responseResult":3,"reactionTime":1622.420000000042,"timestamps":{"preCue":588243.9500000001,"contextCue":588748.1600000001,"firstDelay":589258.675,"memoryArray":590256.55,"secondDelay":591259.4450000001,"responseProbe":593256.01,"feedbackStart":594886.0700000001,"trialEnd":596548.3700000001}}
{"trial":"memory","isCollectMismatch":true,"isProbeMismatch":true,"shouldCollect":true,"memoryLoad":4,"stimInds":[2,0,4,6],"stimAngles":[105,135,45,75],"probeStimInd":5,"trigPulled":1,"responseResult":1,"reactionTime":1194.0249999999069,"timestamps":{"preCue":596565.1250000001,"contextCue":597063.935,"firstDelay":597562.765,"memoryArray":598560.6600000001,"secondDelay":599559.5800000001,"responseProbe":601556.7000000001,"feedbackStart":602758.36,"trialEnd":604436.6}}
{"trial":"memory","isCollectMismatch":true,"isProbeMismatch":true,"shouldCollect":true,"memoryLoad":4,"stimInds":[3,0,8,2],"stimAngles":[105,135,45,75],"probeStimInd":6,"trigPulled":1,"responseResult":1,"reactionTime":2757.939999999944,"timestamps":{"preCue":604452.915,"contextCue":604950.3850000001,"firstDelay":605449.635,"memoryArray":606448.9500000001,"secondDelay":607448.3,"responseProbe":609460.4400000001,"feedbackStart":612225.4500000001,"trialEnd":613889.9650000001}}
{"trial":"memory","isCollectMismatch":true,"isProbeMismatch":true,"shouldCollect":true,"memoryLoad":1,"stimInds":[9],"stimAngles":[45],"probeStimInd":3,"trigPulled":1,"responseResult":1,"reactionTime":984.9450000000652,"timestamps":{"preCue":613905.62,"contextCue":614402.105,"firstDelay":614904.395,"memoryArray":615900.145,"secondDelay":616898.3500000001,"responseProbe":618897.375,"feedbackStart":619900.17,"trialEnd":621575.8500000001}}
{"trial":"memory","isCollectMismatch":true,"isProbeMismatch":false,"shouldCollect":false,"memoryLoad":2,"stimInds":[7,0],"stimAngles":[45,75],"probeStimInd":0,"trigPulled":0,"responseResult":3,"reactionTime":1343.3649999999907,"timestamps":{"preCue":621590.8,"contextCue":622090.7050000001,"firstDelay":622590.095,"memoryArray":623589.5750000001,"secondDelay":624604.7150000001,"responseProbe":626601.0800000001,"feedbackStart":627953.1000000001,"trialEnd":629612.48}}
{"trial":"memory","isCollectMismatch":false,"isProbeMismatch":true,"shouldCollect":false,"memoryLoad":4,"stimInds":[4,9,7,6],"stimAngles":[105,135,45,75],"probeStimInd":8,"trigPulled":0,"responseResult":3,"reactionTime":1711.7849999999162,"timestamps":{"preCue":629629.585,"contextCue":630129.365,"firstDelay":630628.3800000001,"memoryArray":631627.41,"secondDelay":632624.53,"responseProbe":634620.8400000001,"feedbackStart":636340.435,"trialEnd":638017.675}}
{"event":"roundStart","roundType":"bonus","time":"2016-09-19T12:35:01.005Z","timestamp":638021.385,"score":500,"sandLevel":45}
{"trial":"bonus","stimInds":[0],"rewardProbs":[0.2],"rewardPotential":[0],"rewardLevels":[0,-1,-1],"reactionTime":5539.475000000093,"chosenStim":0,"timestamps":{"startFlyIn":639019.0100000001,"endFlyIn":639514.355,"feedbackStart":644562.0800000001,"trialEnd":644809.3650000001},"fireEvents":[{"aladdinX":273.6866964328499,"aladdinY":488.43240308247675,"t":643876.06}],"stimX":1200,"stimY":[540]}
{"trial":"bonus","stimInds":[6],"rewardProbs":[0.8],"rewardPotential":[0],"rewardLevels":[0,-1,-1],"reactionTime":1692.0899999999674,"chosenStim":0,"timestamps":{"startFlyIn":644822.7100000001,"endFlyIn":645322.1000000001,"feedbackStart":646508.9800000001,"trialEnd":646752.2100000001},"fireEvents":[{"aladdinX":522.0814458954544,"aladdinY":518.7963305660354,"t":646041.2950000002}],"stimX":1200,"stimY":[540]}
{"trial":"bonus","stimInds":[4],"rewardProbs":[0.4],"rewardPotential":[1],"rewardLevels":[-1,-1,-1],"reactionTime":1563.8100000000559,"chosenStim":0,"timestamps":{"startFlyIn":646770.9550000001,"endFlyIn":647270.3400000001,"feedbackStart":648321.91,"trialEnd":648567.355},"fireEvents":[{"aladdinX":734.8326508629532,"aladdinY":870.8097638436424,"t":648019.935}],"stimX":1200,"stimY":[880]}
{"trial":"bonus","stimInds":[2,4],"rewardProbs":[0.2,0.4],"rewardPotential":[2,1],"rewardLevels":[-1,-1,-1],"reactionTime":1528.765000000014,"chosenStim":0,"timestamps":{"startFlyIn":648584.375,"endFlyIn":649082.3750000001,"feedbackStart":650103.4550000001,"trialEnd":650349.63},"fireEvents":[{"aladdinX":734.8326508629532,"aladdinY":265.38899319850077,"t":649801.5650000001}],"stimX":1200,"stimY":[200,540]}
{"trial":"bonus","stimInds":[5,7,3],"rewardProbs":[0.4,0.8,0.4],"rewardPotential":[2,1,0],"rewardLevels":[2,1,0],"reactionTime":2408.605000000098,"chosenStim":0,"timestamps":{"startFlyIn":650364.2850000001,"endFlyIn":650881.7300000001,"feedbackStart":652768.3550000001,"trialEnd":653011.1250000001},"fireEvents":[{"aladdinX":800.247303687355,"aladdinY":211.76268714152445,"t":652529.48}],"stimX":1200,"stimY":[200,540,880]}
{"trial":"bonus","stimInds":[2],"rewardProbs":[0.2],"rewardPotential":[2],"rewardLevels":[-1,-1,-1],"reactionTime":1328.2550000000047,"chosenStim":0,"timestamps":{"startFlyIn":653027.9500000001,"endFlyIn":653526.4850000001,"feedbackStart":654346.295,"trialEnd":654590.4},"fireEvents":[{"aladdinX":854,"aladdinY":573.8150264569389,"t":654144.515}],"stimX":1200,"stimY":[540]}
{"trial":"bonus","stimInds":[3,0,7],"rewardProbs":[0.4,0.2,0.8],"rewardPotential":[0,0,1],"rewardLevels":[-1,-1,1],"reactionTime":1327.8700000001118,"chosenStim":0,"timestamps":{"startFlyIn":654608.37,"endFlyIn":655107.1350000001,"feedbackStart":655930.925,"trialEnd":656172.2000000001},"fireEvents":[{"aladdinX":854,"aladdinY":165.94060557566752,"t":655726.885}],"stimX":1200,"stimY":[200,540,880]}
{"trial":"bonus","stimInds":[0,5,1],"rewardProbs":[0.2,0.4,0.2],"rewardPotential":[0,2,1],"rewardLevels":[-1,2,-1],"reactionTime":1093.6800000001676,"chosenStim":1,"timestamps":{"startFlyIn":656189.06,"endFlyIn":656704.6900000001,"feedbackStart":657279.05,"trialEnd":657520.8500000001},"fireEvents":[{"aladdinX":854,"aladdinY":507.2841541715728,"t":657073.52}],"stimX":1200,"stimY":[200,540,880]}
{"trial":"bonus","stimInds":[2],"rewardProbs":[0.2],"rewardPotential":[2],"rewardLevels":[-1,-1,-1],"reactionTime":1195.6649999999208,"chosenStim":0,"timestamps":{"startFlyIn":657536.405,"endFlyIn":658035.885,"feedbackStart":658724.4550000001,"trialEnd":658969.545},"fireEvents":[{"aladdinX":854,"aladdinY":203.99964558564295,"t":658521.865}],"stimX":1200,"stimY":[200]}
{"trial":"bonus","stimInds":[7,3],"rewardProbs":[0.8,0.4],"rewardPotential":[1,0],"rewardLevels":[1,0,-1],"reactionTime":1442.140000000014,"chosenStim":1,"timestamps":{"startFlyIn":658984.0650000001,"endFlyIn":659484.1200000001,"feedbackStart":660420.3300000001,"trialEnd":660664.2750000001},"fireEvents":[{"aladdinX":849.8876940608025,"aladdinY":907.2940813251602,"t":660217.25}],"stimX":1200,"stimY":[540,880]}
{"trial":"bonus","stimInds":[6,8],"rewardProbs":[0.8,0.8],"rewardPotential":[0,2],"rewardLevels":[0,-1,-1],"reactionTime":1395.6950000000652,"chosenStim":0,"timestamps":{"startFlyIn":660682.22,"endFlyIn":661181.43,"feedbackStart":662068.1050000001,"trialEnd":662312.8200000001},"fireEvents":[{"aladdinX":849.8876940608025,"aladdinY":174.06985330067744,"t":661865.3650000001}],"stimX":1200,"stimY":[200,880]}
{"trial":"bonus","stimInds":[2,0,5],"rewardProbs":[0.2,0.2,0.4],"rewardPotential":[2,0,2],"rewardLevels":[2,-1,-1],"reactionTime":1678.3149999999441,"chosenStim":2,"timestamps":{"startFlyIn":662331.425,"endFlyIn":662828.79,"feedbackStart":663998.3450000001,"trialEnd":664242.2000000001},"fireEvents":[{"aladdinX":853.4361791014671,"aladdinY":888.0333720394241,"t":663811.5750000001}],"stimX":1200,"stimY":[200,540,880]}
{"trial":"bonus","stimInds":[4,5],"rewardProbs":[0.4,0.4],"rewardPotential":[1,2],"rewardLevels":[-1,-1,-1],"reactionTime":2660.5000000001164,"chosenStim":1,"timestamps":{"startFlyIn":664260.7250000001,"endFlyIn":664759.915,"feedbackStart":666908.545,"trialEnd":667156.4500000001},"fireEvents":[{"aladdinX":854,"aladdinY":921.6016094684601,"t":666709.565}],"stimX":1200,"stimY":[200,880]}
{"trial":"bonus","stimInds":[7,1],"rewardProbs":[0.8,0.2],"rewardPotential":[1,1],"rewardLevels":[-1,-1,-1],"reactionTime":1059.6350000000093,"chosenStim":1,"timestamps":{"startFlyIn":667170.5650000001,"endFlyIn":667670.64,"feedbackStart":668223.805,"trialEnd":668470.0850000001},"fireEvents":[{"aladdinX":854,"aladdinY":526.3349567651749,"t":668021.0300000001}],"stimX":1200,"stimY":[200,540]}
{"trial":"bonus","stimInds":[2],"rewardProbs":[0.2],"rewardPotential":[2],"rewardLevels":[-1,-1,-1],"reactionTime":1077.6499999999069,"chosenStim":0,"timestamps":{"startFlyIn":668486.425,"endFlyIn":668987.3,"feedbackStart":669557.99,"trialEnd":669801.3850000001},"fireEvents":[{"aladdinX":854,"aladdinY":215.37974286079407,"t":669353.81}],"stimX":1200,"stimY":[200]}
{"trial":"bonus","stimInds":[7,2,5],"rewardProbs":[0.8,0.2,0.4],"rewardPotential":[1,2,2],"rewardLevels":[1,-1,-1],"reactionTime":1877.25,"chosenStim":2,"timestamps":{"startFlyIn":669817.5450000002,"endFlyIn":670316.305,"feedbackStart":671686.3850000001,"trialEnd":671931.4850000001},"fireEvents":[{"aladdinX":854,"aladdinY":862.0173962712288,"t":671482.6300000001}],"stimX":1200,"stimY":[200,540,880]}
{"trial":"bonus","stimInds":[2,8],"rewardProbs":[0.2,0.8],"rewardPotential":[2,2],"rewardLevels":[-1,2,-1],"reactionTime":1445.8550000000978,"chosenStim":1,"timestamps":{"startFlyIn":671948.84,"endFlyIn":672447.65,"feedbackStart":673384.3,"trialEnd":673629.885},"fireEvents":[{"aladdinX":854,"aladdinY":849.9948133826256,"t":673181.4}],"stimX":1200,"stimY":[200,880]}
{"trial":"bonus","stimInds":[8,7],"rewardProbs":[0.8,0.8],"rewardPotential":[2,1],"rewardLevels":[2,1,-1],"reactionTime":2242.7900000000373,"chosenStim":0,"timestamps":{"startFlyIn":673646.3450000001,"endFlyIn":674144.56,"feedbackStart":675879.6500000001,"trialEnd":676123.6150000001},"fireEvents":[{"aladdinX":854,"aladdinY":117.96307462453842,"t":674828.8650000001},{"aladdinX":854,"aladdinY":233.58983981609344,"t":675675.8250000001}],"stimX":1200,"stimY":[200,540]}
{"trial":"bonus","stimInds":[2,1,7],"rewardProbs":[0.2,0.2,0.8],"rewardPotential":[2,1,1],"rewardLevels":[-1,-1,-1],"reactionTime":1795.9400000000605,"chosenStim":1,"timestamps":{"startFlyIn":676140.52,"endFlyIn":676640.415,"feedbackStart":677925.77,"trialEnd":678173.09},"fireEvents":[{"aladdinX":854,"aladdinY":625.5880065560341,"t":677723.91}],"stimX":1200,"stimY":[200,540,880]}
{"trial":"bonus","stimInds":[7],"rewardProbs":[0.8],"rewardPotential":[1],"rewardLevels":[1,-1,-1],"reactionTime":1676.8500000000931,"chosenStim":0,"timestamps":{"startFlyIn":678188.9550000001,"endFlyIn":678687.485,"feedbackStart":679857.38,"trialEnd":680102.345},"fireEvents":[{"aladdinX":854,"aladdinY":176.80720227956772,"t":679654.7000000001}],"stimX":1200,"stimY":[200]}
{"trial":"bonus","stimInds":[4],"rewardProbs":[0.4],"rewardPotential":[1],"rewardLevels":[-1,-1,-1],"reactionTime":1446.134999999893,"chosenStim":0,"timestamps":{"startFlyIn":680120.4450000001,"endFlyIn":680635.2750000001,"feedbackStart":681553.89,"trialEnd":681800.4950000001},"fireEvents":[{"aladdinX":854,"aladdinY":919.9330182671547,"t":681352.5350000001}],"stimX":1200,"stimY":[880]}
{"trial":"bonus","stimInds":[1,0],"rewardProbs":[0.2,0.2],"rewardPotential":[1,0],"rewardLevels":[1,-1,-1],"reactionTime":1377.365000000107,"chosenStim":0,"timestamps":{"startFlyIn":681815.55,"endFlyIn":682316.045,"feedbackStart":683187.0150000001,"trialEnd":683430.4500000001},"fireEvents":[{"aladdinX":854,"aladdinY":156.82933229207993,"t":682983.74}],"stimX":1200,"stimY":[200,540]}
{"trial":"bonus","stimInds":[5],"rewardProbs":[0.4],"rewardPotential":[2],"rewardLevels":[-1,-1,-1],"reactionTime":1445.420000000042,"chosenStim":0,"timestamps":{"startFlyIn":683447.5650000001,"endFlyIn":683945.3550000001,"feedbackStart":684882.775,"trialEnd":685127.295},"fireEvents":[{"aladdinX":854,"aladdinY":893.561625957489,"t":684681.055}],"stimX":1200,"stimY":[880]}
{"event":"roundStart","roundType":"memory","time":"2016-09-19T12:35:48.116Z","timestamp":685130.8700000001,"score":1700,"sandLevel":15}
{"trial":"memory","isCollectMismatch":false,"isProbeMismatch":false,"shouldCollect":true,"memoryLoad":1,"stimInds":[2],"stimAngles":[75],"probeStimInd":2,"trigPulled":1,"responseResult":1,"reactionTime":1642.449999999837,"timestamps":{"preCue":686132.17,"contextCue":686624.9650000001,"firstDelay":687123.735,"memoryArray":688123.06,"secondDelay":689121.8200000001,"responseProbe":691117.4500000001,"feedbackStart":692770.79,"trialEnd":694428.8750000001}}
{"trial":"memory","isCollectMismatch":true,"isProbeMismatch":true,"shouldCollect":true,"memoryLoad":1,"stimInds":[1],"stimAngles":[45],"probeStimInd":5,"trigPulled":1,"responseResult":1,"reactionTime":1607.9099999999162,"timestamps":{"preCue":694447.305,"contextCue":694946.045,"firstDelay":695444.015,"memoryArray":696445.045,"secondDelay":697442.4450000001,"responseProbe":699439.4900000001,"feedbackStart":701059.4850000001,"trialEnd":702717.1000000001}}
{"trial":"memory","isCollectMismatch":false,"isProbeMismatch":false,"shouldCollect":true,"memoryLoad":1,"stimInds":[4],"stimAngles":[135],"probeStimInd":4,"trigPulled":1,"responseResult":1,"reactionTime":2559.3450000000885,"timestamps":{"preCue":702734.685,"contextCue":703232.5750000001,"firstDelay":703732.9000000001,"memoryArray":704731.265,"secondDelay":705728.775,"responseProbe":707725.42,"feedbackStart":710293.8750000001,"trialEnd":711954.515}}
{"trial":"memory","isCollectMismatch":true,"isProbeMismatch":true,"shouldCollect":true,"memoryLoad":1,"stimInds":[7],"stimAngles":[135],"probeStimInd":9,"trigPulled":1,"responseResult":1,"reactionTime":4573.189999999944,"timestamps":{"preCue":711969.92,"contextCue":712486.8250000001,"firstDelay":712984.855,"memoryArray":713982.7250000001,"secondDelay":714982.7150000001,"responseProbe":716977.0950000001,"feedbackStart":721557.4750000001,"trialEnd":723217.6400000001}}
{"trial":"memory","isCollectMismatch":false,"isProbeMismatch":true,"shouldCollect":false,"memoryLoad":4,"stimInds":[3,4,2,9],"stimAngles":[105,135,45,75],"probeStimInd":8,"trigPulled":0,"responseResult":3,"reactionTime":1910.5900000000838,"timestamps":{"preCue":723236.1350000001,"contextCue":723735.1400000001,"firstDelay":724233.605,"memoryArray":725232.51,"secondDelay":726230.5150000001,"responseProbe":728227.0700000001,"feedbackStart":730144.4550000001,"trialEnd":731806.165}}
{"trial":"memory","isCollectMismatch":true,"isProbeMismatch":false,"shouldCollect":false,"memoryLoad":2,"stimInds":[7,8],"stimAngles":[105,135],"probeStimInd":8,"trigPulled":1,"responseResult":2,"reactionTime":2558.2449999999953,"timestamps":{"preCue":731823.7600000001,"contextCue":732321.6850000002,"firstDelay":732820.165,"memoryArray":733819.4850000001,"secondDelay":734817.265,"responseProbe":736814.4350000002,"feedbackStart":739381.2200000001,"trialEnd":741040.8400000001}}
{"trial":"memory","isCollectMismatch":true,"isProbeMismatch":true,"shouldCollect":true,"memoryLoad":1,"stimInds":[4],"stimAngles":[135],"probeStimInd":7,"trigPulled":1,"responseResult":1,"reactionTime":1125.734999999986,"timestamps":{"preCue":741058.13,"contextCue":741557.5500000002,"firstDelay":742057.2400000001,"memoryArray":743054.6300000001,"secondDelay":744054.52,"responseProbe":746050.875,"feedbackStart":747185.8800000001,"trialEnd":748847.1300000001}}
{"trial":"memory","isCollectMismatch":true,"isProbeMismatch":true,"shouldCollect":true,"memoryLoad":1,"stimInds":[2],"stimAngles":[105],"probeStimInd":6,"trigPulled":1,"responseResult":1,"reactionTime":2125.660000000149,"timestamps":{"preCue":748864.365,"contextCue":749360.9700000001,"firstDelay":749859.9500000001,"memoryArray":750862.255,"secondDelay":751859.0150000001,"responseProbe":753854.0150000001,"feedbackStart":755989.27,"trialEnd":757648.53}}
{"trial":"memory","isCollectMismatch":false,"isProbeMismatch":true,"shouldCollect":false,"memoryLoad":1,"stimInds":[7],"stimAngles":[45],"probeStimInd":6,"trigPulled":0,"responseResult":3,"reactionTime":844.535000000149,"timestamps":{"preCue":757665.3350000001,"contextCue":758166.6950000001,"firstDelay":758665.9950000001,"memoryArray":759662.1950000001,"secondDelay":760663.4100000001,"responseProbe":762656.7000000001,"feedbackStart":763508.6200000001,"trialEnd":765186.275}}
{"trial":"memory","isCollectMismatch":false,"isProbeMismatch":true,"shouldCollect":false,"memoryLoad":4,"stimInds":[1,4,8,9],"stimAngles":[105,135,45,75],"probeStimInd":2,"trigPulled":0,"responseResult":3,"reactionTime":3639.305000000051,"timestamps":{"preCue":765205.17,"contextCue":765703.3250000001,"firstDelay":766202.1350000001,"memoryArray":767200.305,"secondDelay":768199.3500000001,"responseProbe":770196.4650000001,"feedbackStart":773842.435,"trialEnd":775505.42}}
{"trial":"memory","isCollectMismatch":false,"isProbeMismatch":true,"shouldCollect":false,"memoryLoad":1,"stimInds":[7],"stimAngles":[135],"probeStimInd":2,"trigPulled":0,"responseResult":3,"reactionTime":1509.1600000000326,"timestamps":{"preCue":775520.4000000001,"contextCue":776020.0750000001,"firstDelay":776520.26,"memoryArray":777517.33,"secondDelay":778517.1,"responseProbe":780513.93,"feedbackStart":782034.9950000001,"trialEnd":783693.415}}
{"trial":"memory","isCollectMismatch":false,"isProbeMismatch":false,"shouldCollect":true,"memoryLoad":1,"stimInds":[4],"stimAngles":[135],"probeStimInd":4,"trigPulled":1,"responseResult":1,"reactionTime":1275.8800000000047,"timestamps":{"preCue":783708.7200000001,"contextCue":784209.1600000001,"firstDelay":784708.7250000001,"memoryArray":785705.6950000001,"secondDelay":786705.4500000001,"responseProbe":788701.1100000001,"feedbackStart":789984.3400000001,"trialEnd":791648.1950000001}}
{"trial":"memory","isCollectMismatch":true,"isProbeMismatch":true,"shouldCollect":true,"memoryLoad":2,"stimInds":[1,6],"stimAngles":[135,45],"probeStimInd":5,"trigPulled":1,"responseResult":1,"reactionTime":1959.295000000042,"timestamps":{"preCue":791666.5850000001,"contextCue":792163.04,"firstDelay":792660.6950000001,"memoryArray":793660.1700000002,"secondDelay":794658.7800000001,"responseProbe":796654.75,"feedbackStart":798620.66,"trialEnd":800282.6950000001}}
{"trial":"memory","isCollectMismatch":false,"isProbeMismatch":true,"shouldCollect":false,"memoryLoad":2,"stimInds":[3,1],"stimAngles":[135,45],"probeStimInd":4,"trigPulled":1,"responseResult":2,"reactionTime":1375.5649999999441,"timestamps":{"preCue":800300.4750000001,"contextCue":800799.4550000001,"firstDelay":801299.5900000001,"memoryArray":802296.995,"secondDelay":803294.4900000001,"responseProbe":805292.56,"feedbackStart":806678.2400000001,"trialEnd":808337.71}}
{"trial":"memory","isCollectMismatch":false,"isProbeMismatch":false,"shouldCollect":true,"memoryLoad":2,"stimInds":[9,2],"stimAngles":[45,75],"probeStimInd":9,"trigPulled":1,"responseResult":1,"reactionTime":1093.0999999999767,"timestamps":{"preCue":808355.3200000001,"contextCue":808852.3050000002,"firstDelay":809352.7550000001,"memoryArray":810351.8,"secondDelay":811349.805,"responseProbe":813346.5700000001,"feedbackStart":814446.125,"trialEnd":816109.8300000001}}
{"trial":"memory","isCollectMismatch":true,"isProbeMismatch":true,"shouldCollect":true,"memoryLoad":1,"stimInds":[6],"stimAngles":[105],"probeStimInd":9,"trigPulled":1,"responseResult":1,"reactionTime":2106.7249999999767,"timestamps":{"preCue":816124.52,"contextCue":816624.0550000002,"firstDelay":817122.37,"memoryArray":818121.8600000001,"secondDelay":819122.6550000001,"responseProbe":821118.6,"feedbackStart":823232.55,"trialEnd":824911.4550000001}}
{"trial":"memory","isCollectMismatch":true,"isProbeMismatch":true,"shouldCollect":true,"memoryLoad":4,"stimInds":[5,4,9,1],"stimAngles":[105,135,45,75],"probeStimInd":6,"trigPulled":1,"responseResult":1,"reactionTime":2292.5050000000047,"timestamps":{"preCue":824930.765,"contextCue":825429.6700000002,"firstDelay":825927.8400000001,"memoryArray":826925.38,"secondDelay":827923.8350000001,"responseProbe":829920.3950000001,"feedbackStart":832219.015,"trialEnd":833881.1650000002}}
{"trial":"memory","isCollectMismatch":false,"isProbeMismatch":true,"shouldCollect":false,"memoryLoad":2,"stimInds":[2,5],"stimAngles":[105,75],"probeStimInd":3,"trigPulled":1,"responseResult":2,"reactionTime":1209.5750000000698,"timestamps":{"preCue":833898.27,"contextCue":834397.185,"firstDelay":834897.0750000001,"memoryArray":835894.7400000001,"secondDelay":836893.6900000001,"responseProbe":838890.885,"feedbackStart":840108.3350000001,"trialEnd":841803.3}}
{"trial":"memory","isCollectMismatch":true,"isProbeMismatch":true,"shouldCollect":true,"memoryLoad":2,"stimInds":[8,1],"stimAngles":[135,75],"probeStimInd":4,"trigPulled":1,"responseResult":1,"reactionTime":860.5450000000419,"timestamps":{"preCue":841818.9000000001,"contextCue":842317.915,"firstDelay":842818.16,"memoryArray":843814.9,"secondDelay":844815.3450000001,"responseProbe":846811.0700000001,"feedbackStart":847680.37,"trialEnd":849357.4800000001}}
{"trial":"memory","isCollectMismatch":true,"isProbeMismatch":false,"shouldCollect":false,"memoryLoad":2,"stimInds":[1,9],"stimAngles":[135,75],"probeStimInd":9,"trigPulled":0,"responseResult":3,"reactionTime":1460.7249999998603,"timestamps":{"preCue":849372.8350000001,"contextCue":849873.8850000001,"firstDelay":850372.7100000001,"memoryArray":851372.675,"secondDelay":852386.8400000001,"responseProbe":854381.5750000001,"feedbackStart":855850.1000000001,"trialEnd":857510.5950000001}}
{"event":"roundStart","roundType":"bonus","time":"2016-09-19T12:38:40.497Z","timestamp":857512.8150000001,"score":1700,"sandLevel":42}
{"trial":"bonus","stimInds":[2,6,8],"rewardProbs":[0.2,0.8,0.8],"rewardPotential":[2,0,2],"rewardLevels":[-1,0,2],"reactionTime":3193.6149999998743,"chosenStim":2,"timestamps":{"startFlyIn":858529.415,"endFlyIn":859025.345,"feedbackStart":861729.4750000001,"trialEnd":861971.9000000001},"fireEvents":[{"aladdinX":372.07232573537,"aladdinY":889.5289554844278,"t":861125.15}],"stimX":1200,"stimY":[200,540,880]}
{"trial":"bonus","stimInds":[3,0],"rewardProbs":[0.4,0.2],"rewardPotential":[0,0],"rewardLevels":[0,-1,-1],"reactionTime":1808.8900000001304,"chosenStim":0,"timestamps":{"startFlyIn":861987.43,"endFlyIn":862487.0350000001,"feedbackStart":863789.2600000001,"trialEnd":864037.16},"fireEvents":[{"aladdinX":666.7667488148606,"aladdinY":197.33625021079956,"t":863436.2800000001}],"stimX":1200,"stimY":[200,880]}
{"trial":"bonus","stimInds":[4,8],"rewardProbs":[0.4,0.8],"rewardPotential":[1,2],"rewardLevels":[1,2,-1],"reactionTime":1606.0750000000698,"chosenStim":1,"timestamps":{"startFlyIn":864050.5950000001,"endFlyIn":864550.7950000002,"feedbackStart":865653.89,"trialEnd":865898.7450000001},"fireEvents":[{"aladdinX":811.9532809546388,"aladdinY":889.2665114651102,"t":865417.8300000001}],"stimX":1200,"stimY":[200,880]}
{"trial":"bonus","stimInds":[4,8,6],"rewardProbs":[0.4,0.8,0.8],"rewardPotential":[1,2,0],"rewardLevels":[1,2,-1],"reactionTime":1244.3699999999953,"chosenStim":1,"timestamps":{"startFlyIn":865914.15,"endFlyIn":866414.43,"feedbackStart":867152.0750000001,"trialEnd":867395.84},"fireEvents":[{"aladdinX":811.9532809546388,"aladdinY":529.1429116974252,"t":866915.515}],"stimX":1200,"stimY":[200,540,880]}
{"trial":"bonus","stimInds":[4],"rewardProbs":[0.4],"rewardPotential":[1],"rewardLevels":[-1,-1,-1],"reactionTime":1264.1499999999069,"chosenStim":0,"timestamps":{"startFlyIn":867413.6300000001,"endFlyIn":867913.125,"feedbackStart":868668.6900000001,"trialEnd":868911.4250000002},"fireEvents":[{"aladdinX":811.9532809546388,"aladdinY":181.95057060817658,"t":868431.18}],"stimX":1200,"stimY":[200]}
{"trial":"bonus","stimInds":[1,3],"rewardProbs":[0.2,0.4],"rewardPotential":[1,0],"rewardLevels":[-1,-1,-1],"reactionTime":1443.579999999958,"chosenStim":1,"timestamps":{"startFlyIn":868926.2900000002,"endFlyIn":869442.49,"feedbackStart":870362.375,"trialEnd":870608.4850000001},"fireEvents":[{"aladdinX":854,"aladdinY":586.656450892486,"t":870160.41}],"stimX":1200,"stimY":[200,540]}
{"trial":"bonus","stimInds":[8],"rewardProbs":[0.8],"rewardPotential":[2],"rewardLevels":[2,-1,-1],"reactionTime":1178.0800000000745,"chosenStim":0,"timestamps":{"startFlyIn":870623.9550000001,"endFlyIn":871122.9800000001,"feedbackStart":871794.155,"trialEnd":872038.0950000001},"fireEvents":[{"aladdinX":854,"aladdinY":218.93614795307099,"t":871590.5500000002}],"stimX":1200,"stimY":[200]}
{"trial":"bonus","stimInds":[7,1,8],"rewardProbs":[0.8,0.2,0.8],"rewardPotential":[1,1,2],"rewardLevels":[1,-1,2],"reactionTime":1494.7999999999302,"chosenStim":2,"timestamps":{"startFlyIn":872055.3900000001,"endFlyIn":872555.015,"feedbackStart":873543.0050000001,"trialEnd":873786.0250000001},"fireEvents":[{"aladdinX":854,"aladdinY":881.4126789222139,"t":873338.6000000001}],"stimX":1200,"stimY":[200,540,880]}
{"trial":"bonus","stimInds":[6,1,0],"rewardProbs":[0.8,0.2,0.2],"rewardPotential":[0,1,0],"rewardLevels":[0,1,0],"reactionTime":1527.7949999999255,"chosenStim":0,"timestamps":{"startFlyIn":873803.7100000001,"endFlyIn":874302.4450000001,"feedbackStart":875322.685,"trialEnd":875567.9550000001},"fireEvents":[{"aladdinX":854,"aladdinY":232.39459630350052,"t":875118.7200000001}],"stimX":1200,"stimY":[200,540,880]}
{"trial":"bonus","stimInds":[5],"rewardProbs":[0.4],"rewardPotential":[2],"rewardLevels":[2,-1,-1],"reactionTime":1078.1750000000466,"chosenStim":0,"timestamps":{"startFlyIn":875583.0050000001,"endFlyIn":876083.8200000001,"feedbackStart":876654.4700000001,"trialEnd":876897.8800000001},"fireEvents":[{"aladdinX":854,"aladdinY":504.478225375213,"t":876450.7500000001}],"stimX":1200,"stimY":[540]}
{"trial":"bonus","stimInds":[1,0],"rewardProbs":[0.2,0.2],"rewardPotential":[1,0],"rewardLevels":[-1,0,-1],"reactionTime":1628.9799999999814,"chosenStim":1,"timestamps":{"startFlyIn":876915.3400000001,"endFlyIn":877414.4850000001,"feedbackStart":878533.81,"trialEnd":878778.9950000001},"fireEvents":[{"aladdinX":854,"aladdinY":916.2932878384966,"t":878348.865}],"stimX":1200,"stimY":[540,880]}
{"trial":"bonus","stimInds":[0,1],"rewardProbs":[0.2,0.2],"rewardPotential":[0,1],"rewardLevels":[-1,-1,-1],"reactionTime":1777.234999999986,"chosenStim":0,"timestamps":{"startFlyIn":878795.77,"endFlyIn":879294.65,"feedbackStart":880564.5750000001,"trialEnd":880810.17},"fireEvents":[{"aladdinX":854,"aladdinY":550.8427655349153,"t":880362.8300000001}],"stimX":1200,"stimY":[540,880]}
{"trial":"bonus","stimInds":[2,4],"rewardProbs":[0.2,0.4],"rewardPotential":[2,1],"rewardLevels":[-1,-1,-1],"reactionTime":1925.8800000000047,"chosenStim":1,"timestamps":{"startFlyIn":880825.4250000002,"endFlyIn":881325.1950000001,"feedbackStart":882744.135,"trialEnd":882991.745},"fireEvents":[{"aladdinX":854,"aladdinY":944.0029063473123,"t":882542.5700000001}],"stimX":1200,"stimY":[200,880]}
{"trial":"bonus","stimInds":[0,8],"rewardProbs":[0.2,0.8],"rewardPotential":[0,2],"rewardLevels":[-1,2,-1],"reactionTime":1322.4599999999627,"chosenStim":1,"timestamps":{"startFlyIn":883005.3350000001,"endFlyIn":883505.3650000001,"feedbackStart":884322.915,"trialEnd":884568.8350000001},"fireEvents":[{"aladdinX":854,"aladdinY":900.33159133295,"t":884122.54}],"stimX":1200,"stimY":[200,880]}
{"trial":"bonus","stimInds":[0,5,1],"rewardProbs":[0.2,0.4,0.2],"rewardPotential":[0,2,1],"rewardLevels":[-1,-1,1],"reactionTime":1529.6800000000512,"chosenStim":1,"timestamps":{"startFlyIn":884587.03,"endFlyIn":885085.3750000001,"feedbackStart":886104.725,"trialEnd":886350.06},"fireEvents":[{"aladdinX":854,"aladdinY":536.825839842357,"t":885905.1350000001}],"stimX":1200,"stimY":[200,540,880]}
{"trial":"bonus","stimInds":[6,1],"rewardProbs":[0.8,0.2],"rewardPotential":[0,1],"rewardLevels":[-1,-1,-1],"reactionTime":1344.1600000000326,"chosenStim":0,"timestamps":{"startFlyIn":886367.0050000001,"endFlyIn":886866.5000000001,"feedbackStart":887703.375,"trialEnd":887947.8700000001},"fireEvents":[{"aladdinX":854,"aladdinY":167.4186557183641,"t":887500.3300000001}],"stimX":1200,"stimY":[200,880]}
{"trial":"bonus","stimInds":[2,8,7],"rewardProbs":[0.2,0.8,0.8],"rewardPotential":[2,2,1],"rewardLevels":[-1,2,-1],"reactionTime":1361.8649999999907,"chosenStim":1,"timestamps":{"startFlyIn":887964.63,"endFlyIn":888464.4500000001,"feedbackStart":889317.2250000001,"trialEnd":889562.9100000001},"fireEvents":[{"aladdinX":854,"aladdinY":510.00658478836,"t":889114.3500000001}],"stimX":1200,"stimY":[200,540,880]}
{"trial":"bonus","stimInds":[4,7,8],"rewardProbs":[0.4,0.8,0.8],"rewardPotential":[1,1,2],"rewardLevels":[-1,1,2],"reactionTime":2292.7750000000233,"chosenStim":2,"timestamps":{"startFlyIn":889578.2400000001,"endFlyIn":890078.2600000001,"feedbackStart":891863.765,"trialEnd":892108.995},"fireEvents":[{"aladdinX":854,"aladdinY":1011.7613711605447,"t":890862.5300000001},{"aladdinX":854,"aladdinY":955.7584675798792,"t":891660.045}],"stimX":1200,"stimY":[200,540,880]}
{"trial":"bonus","stimInds":[7,4],"rewardProbs":[0.8,0.4],"rewardPotential":[1,1],"rewardLevels":[1,-1,-1],"reactionTime":1610.3850000000093,"chosenStim":1,"timestamps":{"startFlyIn":892124.785,"endFlyIn":892623.6950000001,"feedbackStart":893726.935,"trialEnd":893972.4450000001},"fireEvents":[{"aladdinX":854,"aladdinY":588.0480816612619,"t":893527.01}],"stimX":1200,"stimY":[200,540]}
{"trial":"bonus","stimInds":[1],"rewardProbs":[0.2],"rewardPotential":[1],"rewardLevels":[-1,-1,-1],"reactionTime":861.9200000000419,"chosenStim":0,"timestamps":{"startFlyIn":893988.6,"endFlyIn":894488.8450000001,"feedbackStart":894840,"trialEnd":895086.1450000001},"fireEvents":[{"aladdinX":854,"aladdinY":588.0480816612619,"t":894639.0100000001}],"stimX":1200,"stimY":[540]}
{"trial":"bonus","stimInds":[5],"rewardProbs":[0.4],"rewardPotential":[2],"rewardLevels":[-1,-1,-1],"reactionTime":1245.594999999972,"chosenStim":0,"timestamps":{"startFlyIn":895104.295,"endFlyIn":895602.7500000001,"feedbackStart":896337.7400000001,"trialEnd":896585.3900000001},"fireEvents":[{"aladdinX":854,"aladdinY":869.676218892135,"t":896137}],"stimX":1200,"stimY":[880]}
{"trial":"bonus","stimInds":[0],"rewardProbs":[0.2],"rewardPotential":[0],"rewardLevels":[-1,-1,-1],"reactionTime":1343.859999999986,"chosenStim":0,"timestamps":{"startFlyIn":896600.9750000001,"endFlyIn":897101.78,"feedbackStart":897938.015,"trialEnd":898183.9600000001},"fireEvents":[{"aladdinX":854,"aladdinY":835.4311558256525,"t":897735.56}],"stimX":1200,"stimY":[880]}
{"trial":"bonus","stimInds":[7],"rewardProbs":[0.8],"rewardPotential":[1],"rewardLevels":[-1,-1,-1],"reactionTime":1592.6950000000652,"chosenStim":0,"timestamps":{"startFlyIn":898197.4050000001,"endFlyIn":898698.6950000001,"feedbackStart":899782.9400000001,"trialEnd":900032.095},"fireEvents":[{"aladdinX":854,"aladdinY":173.85871615508972,"t":899600.63}],"stimX":1200,"stimY":[200]}
{"trial":"bonus","stimInds":[8,3,6],"rewardProbs":[0.8,0.4,0.8],"rewardPotential":[2,0,0],"rewardLevels":[2,-1,-1],"reactionTime":1409.4599999999627,"chosenStim":0,"timestamps":{"startFlyIn":900045.2050000001,"endFlyIn":900561.3900000001,"feedbackStart":901448.1400000001,"trialEnd":901692.885},"fireEvents":[{"aladdinX":854,"aladdinY":157.72459116081177,"t":901245.9900000001}],"stimX":1200,"stimY":[200,540,880]}
{"event":"roundStart","roundType":"memory","time":"2016-09-19T12:39:24.680Z","timestamp":901696.2150000001,"score":3850,"sandLevel":15}
{"trial":"memory","isCollectMismatch":false,"isProbeMismatch":false,"shouldCollect":true,"memoryLoad":2,"stimInds":[0,9],"stimAngles":[105,45],"probeStimInd":9,"trigPulled":1,"responseResult":1,"reactionTime":1522.1000000000931,"timestamps":{"preCue":902699.1300000001,"contextCue":903193.3950000001,"firstDelay":903691.1050000001,"memoryArray":904687.895,"secondDelay":905686.7150000001,"responseProbe":907685.2550000001,"feedbackStart":909222.6350000001,"trialEnd":910896.1250000001}}
{"trial":"memory","isCollectMismatch":false,"isProbeMismatch":true,"shouldCollect":false,"memoryLoad":1,"stimInds":[4],"stimAngles":[105],"probeStimInd":2,"trigPulled":1,"responseResult":2,"reactionTime":2706.3450000000885,"timestamps":{"preCue":910912.2400000001,"contextCue":911411.1900000001,"firstDelay":911910.605,"memoryArray":912909.48,"secondDelay":913907.4200000002,"responseProbe":915905.3200000001,"feedbackStart":918622.3650000001,"trialEnd":920279.93}}
{"trial":"memory","isCollectMismatch":false,"isProbeMismatch":false,"shouldCollect":true,"memoryLoad":2,"stimInds":[8,4],"stimAngles":[105,75],"probeStimInd":8,"trigPulled":1,"responseResult":1,"reactionTime":2541.5050000000047,"timestamps":{"preCue":920296.9900000001,"contextCue":920795.67,"firstDelay":921296.9650000001,"memoryArray":922295.8900000001,"secondDelay":923293.785,"responseProbe":925289.8650000001,"feedbackStart":927838.045,"trialEnd":929505.545}}
{"trial":"memory","isCollectMismatch":false,"isProbeMismatch":false,"shouldCollect":true,"memoryLoad":4,"stimInds":[7,8,6,2],"stimAngles":[105,135,45,75],"probeStimInd":8,"trigPulled":1,"responseResult":1,"reactionTime":1692.9250000000466,"timestamps":{"preCue":929517.7800000001,"contextCue":930017.5250000001,"firstDelay":930516.1950000001,"memoryArray":931514.2300000001,"secondDelay":932512.375,"responseProbe":934509.3150000002,"feedbackStart":936212.3100000002,"trialEnd":937870.5350000001}}
{"trial":"memory","isCollectMismatch":false,"isProbeMismatch":false,"shouldCollect":true,"memoryLoad":4,"stimInds":[9,1,4,2],"stimAngles":[105,135,45,75],"probeStimInd":9,"trigPulled":0,"responseResult":4,"reactionTime":4002.6049999999814,"timestamps":{"preCue":937887.9900000001,"contextCue":938386.9450000001,"firstDelay":938887.1200000001,"memoryArray":939884.4100000001,"secondDelay":940882.2950000002,"responseProbe":942880.2350000001,"feedbackStart":946892.2250000001,"trialEnd":948553.3350000001}}
{"trial":"memory","isCollectMismatch":true,"isProbeMismatch":true,"shouldCollect":true,"memoryLoad":2,"stimInds":[1,8],"stimAngles":[135,75],"probeStimInd":5,"trigPulled":1,"responseResult":1,"reactionTime":1410.9350000000559,"timestamps":{"preCue":948571.66,"contextCue":949070.0950000001,"firstDelay":949570.0600000002,"memoryArray":950568.2150000001,"secondDelay":951567.4000000001,"responseProbe":953562.685,"feedbackStart":954980.17,"trialEnd":956642.045}}
{"trial":"memory","isCollectMismatch":false,"isProbeMismatch":false,"shouldCollect":true,"memoryLoad":4,"stimInds":[5,2,7,3],"stimAngles":[105,135,45,75],"probeStimInd":5,"trigPulled":1,"responseResult":1,"reactionTime":1525.9449999999488,"timestamps":{"preCue":956658.055,"contextCue":957159.7400000001,"firstDelay":957658.4550000001,"memoryArray":958657.7400000001,"secondDelay":959652.6900000002,"responseProbe":961650.675,"feedbackStart":963184.4300000002,"trialEnd":964846.0650000001}}
{"trial":"memory","isCollectMismatch":false,"isProbeMismatch":false,"shouldCollect":true,"memoryLoad":2,"stimInds":[0,9],"stimAngles":[105,75],"probeStimInd":0,"trigPulled":0,"responseResult":4,"reactionTime":3907.3699999999953,"timestamps":{"preCue":964861.9350000002,"contextCue":965361.8900000001,"firstDelay":965860.7100000001,"memoryArray":966858.54,"secondDelay":967857.5950000001,"responseProbe":969854.4400000001,"feedbackStart":973769.5850000001,"trialEnd":975446.3}}
{"trial":"memory","isCollectMismatch":true,"isProbeMismatch":false,"shouldCollect":false,"memoryLoad":4,"stimInds":[9,3,0,7],"stimAngles":[105,135,45,75],"probeStimInd":0,"trigPulled":1,"responseResult":2,"reactionTime":3007.929999999935,"timestamps":{"preCue":975462.03,"contextCue":975961.8300000001,"firstDelay":976460.2150000001,"memoryArray":977459.415,"secondDelay":978459.3550000001,"responseProbe":980454.405,"feedbackStart":983469.9600000001,"trialEnd":985130.3600000001}}
{"trial":"memory","isCollectMismatch":false,"isProbeMismatch":false,"shouldCollect":true,"memoryLoad":1,"stimInds":[1],"stimAngles":[105],"probeStimInd":1,"trigPulled":1,"responseResult":1,"reactionTime":961.0999999999767,"timestamps":{"preCue":985148.2200000001,"contextCue":985646.37,"firstDelay":986146.2300000001,"memoryArray":987144.3400000001,"secondDelay":988142.76,"responseProbe":990139.6450000001,"feedbackStart":991108.2550000001,"trialEnd":992769.5000000001}}
{"trial":"memory","isCollectMismatch":true,"isProbeMismatch":true,"shouldCollect":true,"memoryLoad":1,"stimInds":[1],"stimAngles":[105],"probeStimInd":9,"trigPulled":1,"responseResult":1,"reactionTime":2974.42499999993,"timestamps":{"preCue":992786.9900000001,"contextCue":993285.6000000001,"firstDelay":993783.5450000002,"memoryArray":994783.665,"secondDelay":995782.7050000001,"responseProbe":997777.9850000001,"feedbackStart":1000759.5650000001,"trialEnd":1002420.675}}
{"trial":"memory","isCollectMismatch":true,"isProbeMismatch":true,"shouldCollect":true,"memoryLoad":1,"stimInds":[4],"stimAngles":[105],"probeStimInd":7,"trigPulled":1,"responseResult":1,"reactionTime":1641.9299999999348,"timestamps":{"preCue":1002437.7150000001,"contextCue":1002936.2350000001,"firstDelay":1003436.4450000001,"memoryArray":1004434.0350000001,"secondDelay":1005433.545,"responseProbe":1007430.1000000001,"feedbackStart":1009079.4300000002,"trialEnd":1010741.56}}
{"trial":"memory","isCollectMismatch":false,"isProbeMismatch":true,"shouldCollect":false,"memoryLoad":4,"stimInds":[5,0,1,2],"stimAngles":[105,135,45,75],"probeStimInd":8,"trigPulled":0,"responseResult":3,"reactionTime":4339.114999999991,"timestamps":{"preCue":1010758.77,"contextCue":1011257.2500000001,"firstDelay":1011756.175,"memoryArray":1012755.0000000001,"secondDelay":1013754.8550000001,"responseProbe":1015751.38,"feedbackStart":1020098.06,"trialEnd":1021756.935}}
{"trial":"memory","isCollectMismatch":false,"isProbeMismatch":false,"shouldCollect":true,"memoryLoad":2,"stimInds":[4,9],"stimAngles":[105,45],"probeStimInd":9,"trigPulled":1,"responseResult":1,"reactionTime":2556.5399999998044,"timestamps":{"preCue":1021773.26,"contextCue":1022273.1000000001,"firstDelay":1022772.8900000001,"memoryArray":1023773.17,"secondDelay":1024769.4550000001,"responseProbe":1026768.045,"feedbackStart":1029332.02,"trialEnd":1030994.0850000001}}
{"trial":"memory","isCollectMismatch":true,"isProbeMismatch":false,"shouldCollect":false,"memoryLoad":2,"stimInds":[1,0],"stimAngles":[105,45],"probeStimInd":1,"trigPulled":1,"responseResult":2,"reactionTime":4736.1849999999395,"timestamps":{"preCue":1031010.855,"contextCue":1031508.8600000001,"firstDelay":1032008.425,"memoryArray":1033006.8700000001,"secondDelay":1034005.6900000002,"responseProbe":1036002.845,"feedbackStart":1040747.8050000002,"trialEnd":1042427.105}}
{"trial":"memory","isCollectMismatch":false,"isProbeMismatch":true,"shouldCollect":false,"memoryLoad":4,"stimInds":[5,9,6,7],"stimAngles":[105,135,45,75],"probeStimInd":8,"trigPulled":1,"responseResult":2,"reactionTime":1574.2499999998836,"timestamps":{"preCue":1042442.5450000002,"contextCue":1042943.0200000001,"firstDelay":1043440.675,"memoryArray":1044439.345,"secondDelay":1045437.535,"responseProbe":1047435.88,"feedbackStart":1049018.925,"trialEnd":1050679.525}}
{"trial":"memory","isCollectMismatch":false,"isProbeMismatch":false,"shouldCollect":true,"memoryLoad":4,"stimInds":[4,7,2,8],"stimAngles":[105,135,45,75],"probeStimInd":8,"trigPulled":1,"responseResult":1,"reactionTime":2609.100000000093,"timestamps":{"preCue":1050695.6400000001,"contextCue":1051195.03,"firstDelay":1051695.565,"memoryArray":1052693.5250000001,"secondDelay":1053692.4700000002,"responseProbe":1055688.67,"feedbackStart":1058304.7800000003,"trialEnd":1059965.675}}
{"trial":"memory","isCollectMismatch":true,"isProbeMismatch":false,"shouldCollect":false,"memoryLoad":1,"stimInds":[8],"stimAngles":[135],"probeStimInd":8,"trigPulled":0,"responseResult":3,"reactionTime":1376.3349999999627,"timestamps":{"preCue":1059983.0050000001,"contextCue":1060481.1,"firstDelay":1060981.2550000001,"memoryArray":1061978.425,"secondDelay":1062977.3900000001,"responseProbe":1064974.77,"feedbackStart":1066358.5,"trialEnd":1068019.315}}
{"trial":"memory","isCollectMismatch":true,"isProbeMismatch":true,"shouldCollect":true,"memoryLoad":1,"stimInds":[0],"stimAngles":[75],"probeStimInd":7,"trigPulled":1,"responseResult":1,"reactionTime":778.589999999851,"timestamps":{"preCue":1068038.0300000003,"contextCue":1068535.13,"firstDelay":1069035.335,"memoryArray":1070034.865,"secondDelay":1071032.885,"responseProbe":1073028.495,"feedbackStart":1073814.1,"trialEnd":1075491.135}}
{"trial":"memory","isCollectMismatch":false,"isProbeMismatch":true,"shouldCollect":false,"memoryLoad":4,"stimInds":[7,6,2,3],"stimAngles":[105,135,45,75],"probeStimInd":0,"trigPulled":1,"responseResult":2,"reactionTime":2558.410000000149,"timestamps":{"preCue":1075508.72,"contextCue":1076007.56,"firstDelay":1076507.0500000003,"memoryArray":1077506.0550000002,"secondDelay":1078505.47,"responseProbe":1080500.445,"feedbackStart":1083066.6300000001,"trialEnd":1084744.3}}
{"event":"roundStart","roundType":"bonus","time":"2016-09-19T12:42:27.731Z","timestamp":1084747.34,"score":3850,"sandLevel":33}
{"trial":"bonus","stimInds":[0],"rewardProbs":[0.2],"rewardPotential":[0],"rewardLevels":[-1,-1,-1],"reactionTime":5656,"chosenStim":0,"timestamps":{"startFlyIn":1085745.095,"endFlyIn":1086259.6250000002,"feedbackStart":1091404.52,"trialEnd":1091650.82},"fireEvents":[{"aladdinX":206.41885617283947,"aladdinY":824.3383696162591,"t":1090669.03}],"stimX":1200,"stimY":[880]}
{"trial":"bonus","stimInds":[8],"rewardProbs":[0.8],"rewardPotential":[2],"rewardLevels":[-1,-1,-1],"reactionTime":1861.119999999879,"chosenStim":0,"timestamps":{"startFlyIn":1091666.815,"endFlyIn":1092166.0350000001,"feedbackStart":1093519.3900000001,"trialEnd":1093763.2950000002},"fireEvents":[{"aladdinX":239.26237502602703,"aladdinY":174.6069290721307,"t":1092798.775}],"stimX":1200,"stimY":[200]}
{"trial":"bonus","stimInds":[5],"rewardProbs":[0.4],"rewardPotential":[2],"rewardLevels":[-1,-1,-1],"reactionTime":1628.780000000028,"chosenStim":0,"timestamps":{"startFlyIn":1093780.575,"endFlyIn":1094280.1300000001,"feedbackStart":1095398.85,"trialEnd":1095644.225},"fireEvents":[{"aladdinX":802.0936761191285,"aladdinY":493.2358994567285,"t":1095165.0050000001}],"stimX":1200,"stimY":[540]}
{"trial":"bonus","stimInds":[3],"rewardProbs":[0.4],"rewardPotential":[0],"rewardLevels":[-1,-1,-1],"reactionTime":1279.2849999999162,"chosenStim":0,"timestamps":{"startFlyIn":1095660.79,"endFlyIn":1096159.6900000002,"feedbackStart":1096930.27,"trialEnd":1097175.0050000001},"fireEvents":[{"aladdinX":817.5800607493318,"aladdinY":871.8725108587632,"t":1096694.1450000003}],"stimX":1200,"stimY":[880]}
{"trial":"bonus","stimInds":[5,1],"rewardProbs":[0.4,0.2],"rewardPotential":[2,1],"rewardLevels":[2,1,-1],"reactionTime":1328.8799999996554,"chosenStim":0,"timestamps":{"startFlyIn":1097192.1550000003,"endFlyIn":1097692.3550000002,"feedbackStart":1098511.58,"trialEnd":1098755.9000000001},"fireEvents":[{"aladdinX":817.5800607493318,"aladdinY":540.0734787666688,"t":1098292.34}],"stimX":1200,"stimY":[540,880]}
{"trial":"bonus","stimInds":[4,0,8],"rewardProbs":[0.4,0.2,0.8],"rewardPotential":[1,0,2],"rewardLevels":[1,-1,2],"reactionTime":2277.255000000121,"chosenStim":2,"timestamps":{"startFlyIn":1098773.6300000001,"endFlyIn":1099271.365,"feedbackStart":1101042.735,"trialEnd":1101286.9100000001},"fireEvents":[{"aladdinX":817.5800607493318,"aladdinY":975.0624176347146,"t":1100189.0050000001},{"aladdinX":817.5800607493318,"aladdinY":914.6992477261911,"t":1100805.055}],"stimX":1200,"stimY":[200,540,880]}
{"trial":"bonus","stimInds":[4],"rewardProbs":[0.4],"rewardPotential":[1],"rewardLevels":[1,-1,-1],"reactionTime":1127.9200000001583,"chosenStim":0,"timestamps":{"startFlyIn":1101302.185,"endFlyIn":1101800.565,"feedbackStart":1102423.395,"trialEnd":1102667.0650000002},"fireEvents":[{"aladdinX":817.5800607493318,"aladdinY":217.8586264932046,"t":1102203.0250000001}],"stimX":1200,"stimY":[200]}
{"trial":"bonus","stimInds":[0,8],"rewardProbs":[0.2,0.8],"rewardPotential":[0,2],"rewardLevels":[-1,2,-1],"reactionTime":1077.655000000028,"chosenStim":1,"timestamps":{"startFlyIn":1102683.6850000003,"endFlyIn":1103183.04,"feedbackStart":1103754.0650000002,"trialEnd":1103997.0850000002},"fireEvents":[{"aladdinX":820.0863395026124,"aladdinY":580.6777259194741,"t":1103516.8900000001}],"stimX":1200,"stimY":[200,540]}
{"trial":"bonus","stimInds":[2],"rewardProbs":[0.2],"rewardPotential":[2],"rewardLevels":[-1,-1,-1],"reactionTime":1462.5749999997206,"chosenStim":0,"timestamps":{"startFlyIn":1104015.7850000001,"endFlyIn":1104513.0550000002,"feedbackStart":1105466.34,"trialEnd":1105711.485},"fireEvents":[{"aladdinX":820.7333228876985,"aladdinY":950.4625740134607,"t":1105232.975}],"stimX":1200,"stimY":[880]}
{"trial":"bonus","stimInds":[7],"rewardProbs":[0.8],"rewardPotential":[1],"rewardLevels":[1,-1,-1],"reactionTime":1262.4550000000745,"chosenStim":0,"timestamps":{"startFlyIn":1105728.45,"endFlyIn":1106229.2300000002,"feedbackStart":1106980.54,"trialEnd":1107226.3150000002},"fireEvents":[{"aladdinX":820.7333228876985,"aladdinY":827.4550219857583,"t":1106745.945}],"stimX":1200,"stimY":[880]}
{"trial":"bonus","stimInds":[6,2,0],"rewardProbs":[0.8,0.2,0.2],"rewardPotential":[0,2,0],"rewardLevels":[0,2,0],"reactionTime":1345.369999999879,"chosenStim":0,"timestamps":{"startFlyIn":1107242.43,"endFlyIn":1107741.54,"feedbackStart":1108580.3350000002,"trialEnd":1108822.8450000002},"fireEvents":[{"aladdinX":820.7333228876985,"aladdinY":278.98473943113186,"t":1108344.0450000002}],"stimX":1200,"stimY":[200,540,880]}
{"trial":"bonus","stimInds":[7,4,3],"rewardProbs":[0.8,0.4,0.4],"rewardPotential":[1,1,0],"rewardLevels":[1,-1,-1],"reactionTime":1376.1349999997765,"chosenStim":2,"timestamps":{"startFlyIn":1108839.115,"endFlyIn":1109338.835,"feedbackStart":1110210.4100000001,"trialEnd":1110455.215},"fireEvents":[{"aladdinX":820.7333228876985,"aladdinY":814.5443716132531,"t":1109974.6650000003}],"stimX":1200,"stimY":[200,540,880]}
{"trial":"bonus","stimInds":[7,5],"rewardProbs":[0.8,0.4],"rewardPotential":[1,2],"rewardLevels":[1,2,-1],"reactionTime":979.0649999999441,"chosenStim":1,"timestamps":{"startFlyIn":1110471.0300000003,"endFlyIn":1110970.3650000002,"feedbackStart":1111441.6900000002,"trialEnd":1111685.555},"fireEvents":[{"aladdinX":820.7333228876985,"aladdinY":859.8804503166566,"t":1111205.205}],"stimX":1200,"stimY":[540,880]}
{"trial":"bonus","stimInds":[2,7,1],"rewardProbs":[0.2,0.8,0.2],"rewardPotential":[2,1,1],"rewardLevels":[-1,1,-1],"reactionTime":2410.9599999999627,"chosenStim":1,"timestamps":{"startFlyIn":1111701.6900000002,"endFlyIn":1112201.205,"feedbackStart":1114106.3450000002,"trialEnd":1114348.9200000002},"fireEvents":[{"aladdinX":820.7333228876985,"aladdinY":525.6788813555131,"t":1113870.6}],"stimX":1200,"stimY":[200,540,880]}
{"trial":"bonus","stimInds":[4],"rewardProbs":[0.4],"rewardPotential":[1],"rewardLevels":[1,-1,-1],"reactionTime":1179.5400000000373,"chosenStim":0,"timestamps":{"startFlyIn":1114365.1300000001,"endFlyIn":1114865.455,"feedbackStart":1115536.3100000003,"trialEnd":1115779.0950000002},"fireEvents":[{"aladdinX":820.7333228876985,"aladdinY":208.77646679519512,"t":1115315.8900000001}],"stimX":1200,"stimY":[200]}
{"trial":"bonus","stimInds":[8],"rewardProbs":[0.8],"rewardPotential":[2],"rewardLevels":[2,-1,-1],"reactionTime":1629.3499999998603,"chosenStim":0,"timestamps":{"startFlyIn":1115796.745,"endFlyIn":1116295.84,"feedbackStart":1117414.98,"trialEnd":1117661.055},"fireEvents":[{"aladdinX":820.7333228876985,"aladdinY":298.2858913624177,"t":1116529.5950000002},{"aladdinX":820.7333228876985,"aladdinY":246.5700107300172,"t":1117179.885}],"stimX":1200,"stimY":[200]}
{"trial":"bonus","stimInds":[7],"rewardProbs":[0.8],"rewardPotential":[1],"rewardLevels":[1,-1,-1],"reactionTime":1261.1749999998137,"chosenStim":0,"timestamps":{"startFlyIn":1117676.34,"endFlyIn":1118176.365,"feedbackStart":1118929.145,"trialEnd":1119175.9300000002},"fireEvents":[{"aladdinX":820.7333228876985,"aladdinY":502.22424561618664,"t":1118693.8800000001}],"stimX":1200,"stimY":[540]}
{"trial":"bonus","stimInds":[0,8],"rewardProbs":[0.2,0.8],"rewardPotential":[0,2],"rewardLevels":[-1,2,-1],"reactionTime":843.8449999997392,"chosenStim":1,"timestamps":{"startFlyIn":1119191.175,"endFlyIn":1119689.155,"feedbackStart":1120026.955,"trialEnd":1120273.8000000003},"fireEvents":[{"aladdinX":820.7333228876985,"aladdinY":502.22424561618664,"t":1119792.4300000002}],"stimX":1200,"stimY":[200,540]}
{"event":"roundStart","roundType":"memory","time":"2016-09-19T12:43:03.261Z","timestamp":1120276.6250000002,"score":5600,"sandLevel":15}
{"trial":"memory","isCollectMismatch":true,"isProbeMismatch":false,"shouldCollect":false,"memoryLoad":2,"stimInds":[0,8],"stimAngles":[45,75],"probeStimInd":8,"trigPulled":1,"responseResult":2,"reactionTime":2323.994999999879,"timestamps":{"preCue":1121271.89,"contextCue":1121771.12,"firstDelay":1122268.7650000001,"memoryArray":1123267.55,"secondDelay":1124267.0750000002,"responseProbe":1126262.825,"feedbackStart":1128596.2000000002,"trialEnd":1130257.81}}
{"trial":"memory","isCollectMismatch":false,"isProbeMismatch":true,"shouldCollect":false,"memoryLoad":2,"stimInds":[0,6],"stimAngles":[135,45],"probeStimInd":3,"trigPulled":0,"responseResult":3,"reactionTime":3289.695000000065,"timestamps":{"preCue":1130273.4600000002,"contextCue":1130772.6099999999,"firstDelay":1131273.1,"memoryArray":1132270.07,"secondDelay":1133268.64,"responseProbe":1135266.52,"feedbackStart":1138564.1400000001,"trialEnd":1140225.55}}
{"trial":"memory","isCollectMismatch":true,"isProbeMismatch":true,"shouldCollect":true,"memoryLoad":4,"stimInds":[1,6,7,5],"stimAngles":[105,135,45,75],"probeStimInd":9,"trigPulled":1,"responseResult":1,"reactionTime":1526.9500000001863,"timestamps":{"preCue":1140242.955,"contextCue":1140740.675,"firstDelay":1141240.6900000002,"memoryArray":1142238.595,"secondDelay":1143237.425,"responseProbe":1145233.4000000001,"feedbackStart":1146770.97,"trialEnd":1148428.49}}
{"trial":"memory","isCollectMismatch":false,"isProbeMismatch":false,"shouldCollect":true,"memoryLoad":4,"stimInds":[5,3,1,8],"stimAngles":[105,135,45,75],"probeStimInd":3,"trigPulled":0,"responseResult":4,"reactionTime":1973.8549999999814,"timestamps":{"preCue":1148444.95,"contextCue":1148945.5150000001,"firstDelay":1149444.4050000003,"memoryArray":1150443.745,"secondDelay":1151443.43,"responseProbe":1153438.7650000001,"feedbackStart":1155421.465,"trialEnd":1157083.01}}
{"trial":"memory","isCollectMismatch":false,"isProbeMismatch":true,"shouldCollect":false,"memoryLoad":4,"stimInds":[5,8,9,3],"stimAngles":[105,135,45,75],"probeStimInd":1,"trigPulled":1,"responseResult":2,"reactionTime":2042.2399999999907,"timestamps":{"preCue":1157100.3,"contextCue":1157598.5050000001,"firstDelay":1158098.6300000001,"memoryArray":1159096.0550000002,"secondDelay":1160093.795,"responseProbe":1162091.03,"feedbackStart":1164142.395,"trialEnd":1165803.02}}
{"trial":"memory","isCollectMismatch":false,"isProbeMismatch":true,"shouldCollect":false,"memoryLoad":4,"stimInds":[0,7,9,4],"stimAngles":[105,135,45,75],"probeStimInd":1,"trigPulled":0,"responseResult":3,"reactionTime":1179.6499999999069,"timestamps":{"preCue":1165819.0150000001,"contextCue":1166318.79,"firstDelay":1166817.9200000002,"memoryArray":1167814.9400000002,"secondDelay":1168814.4300000002,"responseProbe":1170810.115,"feedbackStart":1171995.81,"trialEnd":1173657.015}}
{"trial":"memory","isCollectMismatch":false,"isProbeMismatch":false,"shouldCollect":true,"memoryLoad":1,"stimInds":[7],"stimAngles":[105],"probeStimInd":7,"trigPulled":1,"responseResult":1,"reactionTime":1710.7850000003818,"timestamps":{"preCue":1173672.475,"contextCue":1174171.455,"firstDelay":1174671.19,"memoryArray":1175669.7000000002,"secondDelay":1176668.695,"responseProbe":1178665.2550000001,"feedbackStart":1180385.175,"trialEnd":1182043.7800000003}}
{"trial":"memory","isCollectMismatch":true,"isProbeMismatch":true,"shouldCollect":true,"memoryLoad":4,"stimInds":[4,1,7,9],"stimAngles":[105,135,45,75],"probeStimInd":8,"trigPulled":1,"responseResult":1,"reactionTime":1876.1000000000931,"timestamps":{"preCue":1182062.355,"contextCue":1182559.0550000002,"firstDelay":1183058.83,"memoryArray":1184060.0100000002,"secondDelay":1185056.78,"responseProbe":1187052.14,"feedbackStart":1188934.485,"trialEnd":1190596.7}}
{"trial":"memory","isCollectMismatch":false,"isProbeMismatch":true,"shouldCollect":false,"memoryLoad":2,"stimInds":[8,1],"stimAngles":[105,45],"probeStimInd":0,"trigPulled":0,"responseResult":3,"reactionTime":2809.0099999997765,"timestamps":{"preCue":1190614.64,"contextCue":1191112.945,"firstDelay":1191613.32,"memoryArray":1192610.7900000003,"secondDelay":1193609.49,"responseProbe":1195605.835,"feedbackStart":1198422.1550000003,"trialEnd":1200083.35}}
{"trial":"memory","isCollectMismatch":true,"isProbeMismatch":false,"shouldCollect":false,"memoryLoad":4,"stimInds":[7,5,3,6],"stimAngles":[105,135,45,75],"probeStimInd":7,"trigPulled":1,"responseResult":2,"reactionTime":1723.0949999997392,"timestamps":{"preCue":1200100.03,"contextCue":1200598.8450000002,"firstDelay":1201096.895,"memoryArray":1202096.44,"secondDelay":1203096.04,"responseProbe":1205093.2500000002,"feedbackStart":1206826.4000000001,"trialEnd":1208486.395}}
{"trial":"memory","isCollectMismatch":true,"isProbeMismatch":true,"shouldCollect":true,"memoryLoad":2,"stimInds":[2,8],"stimAngles":[135,45],"probeStimInd":4,"trigPulled":1,"responseResult":1,"reactionTime":1577.7700000000186,"timestamps":{"preCue":1208502.905,"contextCue":1209002.6700000002,"firstDelay":1209501.24,"memoryArray":1210501.9100000001,"secondDelay":1211498.5350000001,"responseProbe":1213494.21,"feedbackStart":1215077.5350000001,"trialEnd":1216740.2950000002}}
{"trial":"memory","isCollectMismatch":true,"isProbeMismatch":true,"shouldCollect":true,"memoryLoad":2,"stimInds":[5,1],"stimAngles":[105,135],"probeStimInd":7,"trigPulled":1,"responseResult":1,"reactionTime":977.4000000001397,"timestamps":{"preCue":1216757.335,"contextCue":1217255.49,"firstDelay":1217755.6400000001,"memoryArray":1218753.455,"secondDelay":1219751.7850000001,"responseProbe":1221748.965,"feedbackStart":1222734.85,"trialEnd":1224395.7200000002}}
{"trial":"memory","isCollectMismatch":true,"isProbeMismatch":false,"shouldCollect":false,"memoryLoad":4,"stimInds":[8,6,1,9],"stimAngles":[105,135,45,75],"probeStimInd":9,"trigPulled":1,"responseResult":2,"reactionTime":1060.5699999998324,"timestamps":{"preCue":1224411.81,"contextCue":1224911.515,"firstDelay":1225410.125,"memoryArray":1226409.07,"secondDelay":1227406.6500000001,"responseProbe":1229404.435,"feedbackStart":1230471.945,"trialEnd":1232132.605}}
{"trial":"memory","isCollectMismatch":false,"isProbeMismatch":false,"shouldCollect":true,"memoryLoad":4,"stimInds":[3,5,2,0],"stimAngles":[105,135,45,75],"probeStimInd":2,"trigPulled":1,"responseResult":1,"reactionTime":1424.4000000001397,"timestamps":{"preCue":1232149.465,"contextCue":1232649.36,"firstDelay":1233151.65,"memoryArray":1234145.8750000002,"secondDelay":1235145.3800000001,"responseProbe":1237143.0200000003,"feedbackStart":1238577.585,"trialEnd":1240252.925}}
{"trial":"memory","isCollectMismatch":true,"isProbeMismatch":false,"shouldCollect":false,"memoryLoad":4,"stimInds":[9,4,0,6],"stimAngles":[105,135,45,75],"probeStimInd":9,"trigPulled":1,"responseResult":2,"reactionTime":1625.0249999999069,"timestamps":{"preCue":1240270.625,"contextCue":1240770.6050000002,"firstDelay":1241269.0850000002,"memoryArray":1242268.405,"secondDelay":1243265.205,"responseProbe":1245263.5050000001,"feedbackStart":1246895.975,"trialEnd":1248557.51}}
{"trial":"memory","isCollectMismatch":true,"isProbeMismatch":true,"shouldCollect":true,"memoryLoad":4,"stimInds":[7,9,1,2],"stimAngles":[105,135,45,75],"probeStimInd":6,"trigPulled":0,"responseResult":4,"reactionTime":2026.7600000000093,"timestamps":{"preCue":1248574.705,"contextCue":1249073.735,"firstDelay":1249574.585,"memoryArray":1250571.1150000002,"secondDelay":1251569.9000000001,"responseProbe":1253566.4700000002,"feedbackStart":1255601.145,"trialEnd":1257276.82}}
{"trial":"memory","isCollectMismatch":false,"isProbeMismatch":true,"shouldCollect":false,"memoryLoad":4,"stimInds":[2,7,6,0],"stimAngles":[105,135,45,75],"probeStimInd":8,"trigPulled":1,"responseResult":2,"reactionTime":2058.560000000056,"timestamps":{"preCue":1257295.5000000002,"contextCue":1257793.47,"firstDelay":1258292.345,"memoryArray":1259291.5050000001,"secondDelay":1260288.715,"responseProbe":1262286.995,"feedbackStart":1264354.725,"trialEnd":1266015.01}}
{"trial":"memory","isCollectMismatch":true,"isProbeMismatch":false,"shouldCollect":false,"memoryLoad":2,"stimInds":[4,9],"stimAngles":[105,135],"probeStimInd":4,"trigPulled":0,"responseResult":3,"reactionTime":1471.5549999999348,"timestamps":{"preCue":1266032.5350000001,"contextCue":1266530.3800000001,"firstDelay":1267029.2000000002,"memoryArray":1268029.26,"secondDelay":1269025.715,"responseProbe":1271024.5550000002,"feedbackStart":1272506.995,"trialEnd":1274167.735}}
{"trial":"memory","isCollectMismatch":false,"isProbeMismatch":false,"shouldCollect":true,"memoryLoad":2,"stimInds":[8,1],"stimAngles":[105,75],"probeStimInd":1,"trigPulled":1,"responseResult":1,"reactionTime":761.2450000001118,"timestamps":{"preCue":1274185.36,"contextCue":1274685.7200000002,"firstDelay":1275182.7,"memoryArray":1276180.9700000002,"secondDelay":1277179.7700000003,"responseProbe":1279176.7200000002,"feedbackStart":1279946.205,"trialEnd":1281606.59}}
{"trial":"memory","isCollectMismatch":false,"isProbeMismatch":false,"shouldCollect":true,"memoryLoad":1,"stimInds":[1],"stimAngles":[135],"probeStimInd":1,"trigPulled":1,"responseResult":1,"reactionTime":1460.4799999999814,"timestamps":{"preCue":1281622.425,"contextCue":1282123.325,"firstDelay":1282620.865,"memoryArray":1283620.04,"secondDelay":1284618.425,"responseProbe":1286616.095,"feedbackStart":1288083.02,"trialEnd":1289744.6600000001}}
{"event":"roundStart","roundType":"bonus","time":"2016-09-19T12:45:52.730Z","timestamp":1289746.175,"score":5600,"sandLevel":21}
{"trial":"bonus","stimInds":[2,6,7],"rewardProbs":[0.2,0.8,0.8],"rewardPotential":[2,0,1],"rewardLevels":[-1,0,1],"reactionTime":3087.1999999999534,"chosenStim":2,"timestamps":{"startFlyIn":1290743.085,"endFlyIn":1291242.16,"feedbackStart":1293833.2500000002,"trialEnd":1294088.4150000003},"fireEvents":[{"aladdinX":763.4425684347578,"aladdinY":939.8866688020089,"t":1293539.86}],"stimX":1200,"stimY":[200,540,880]}
{"trial":"bonus","stimInds":[7,5,6],"rewardProbs":[0.8,0.4,0.8],"rewardPotential":[1,2,0],"rewardLevels":[1,2,0],"reactionTime":1678.0700000000652,"chosenStim":1,"timestamps":{"startFlyIn":1294105.86,"endFlyIn":1294603.6700000002,"feedbackStart":1295774.48,"trialEnd":1296020.9000000001},"fireEvents":[{"aladdinX":791.1079379454085,"aladdinY":574.3156026608804,"t":1295520.3450000002}],"stimX":1200,"stimY":[200,540,880]}
{"trial":"bonus","stimInds":[4,6,3],"rewardProbs":[0.4,0.8,0.4],"rewardPotential":[1,0,0],"rewardLevels":[-1,-1,-1],"reactionTime":2073.3149999997113,"chosenStim":1,"timestamps":{"startFlyIn":1296036.1400000001,"endFlyIn":1296533.56,"feedbackStart":1298102.0250000001,"trialEnd":1298347.9300000002},"fireEvents":[{"aladdinX":829.1761543884703,"aladdinY":538.9001806385377,"t":1297884.4000000001}],"stimX":1200,"stimY":[200,540,880]}
{"trial":"bonus","stimInds":[6,8,2],"rewardProbs":[0.8,0.8,0.2],"rewardPotential":[0,2,2],"rewardLevels":[0,2,-1],"reactionTime":1611.3000000000466,"chosenStim":1,"timestamps":{"startFlyIn":1298365.8850000002,"endFlyIn":1298863.975,"feedbackStart":1299968.145,"trialEnd":1300211.9500000002},"fireEvents":[{"aladdinX":852.326370729489,"aladdinY":505.0045515901902,"t":1299764.21}],"stimX":1200,"stimY":[200,540,880]}
{"trial":"bonus","stimInds":[8],"rewardProbs":[0.8],"rewardPotential":[2],"rewardLevels":[2,-1,-1],"reactionTime":1295.2450000001118,"chosenStim":0,"timestamps":{"startFlyIn":1300228.62,"endFlyIn":1300727.6,"feedbackStart":1301513.275,"trialEnd":1301759.8200000003},"fireEvents":[{"aladdinX":854,"aladdinY":881.2371062047341,"t":1301311.56}],"stimX":1200,"stimY":[880]}
{"trial":"bonus","stimInds":[2,1,0],"rewardProbs":[0.2,0.2,0.2],"rewardPotential":[2,1,0],"rewardLevels":[-1,-1,0],"reactionTime":1162,"chosenStim":2,"timestamps":{"startFlyIn":1301777.31,"endFlyIn":1302274.7200000002,"feedbackStart":1302929.325,"trialEnd":1303173.7950000002},"fireEvents":[{"aladdinX":854,"aladdinY":881.2371062047341,"t":1302726.625}],"stimX":1200,"stimY":[200,540,880]}
{"trial":"bonus","stimInds":[5,1],"rewardProbs":[0.4,0.2],"rewardPotential":[2,1],"rewardLevels":[2,-1,-1],"reactionTime":1728.2749999999069,"chosenStim":0,"timestamps":{"startFlyIn":1303190.1400000001,"endFlyIn":1303688.8900000001,"feedbackStart":1304909.85,"trialEnd":1305154.09},"fireEvents":[{"aladdinX":854,"aladdinY":138.9467250115731,"t":1304706.5050000001}],"stimX":1200,"stimY":[200,880]}
{"trial":"bonus","stimInds":[3],"rewardProbs":[0.4],"rewardPotential":[0],"rewardLevels":[-1,-1,-1],"reactionTime":1312.9299999999348,"chosenStim":0,"timestamps":{"startFlyIn":1305170.26,"endFlyIn":1305670.985,"feedbackStart":1306474.5850000002,"trialEnd":1306718.5650000002},"fireEvents":[{"aladdinX":854,"aladdinY":230.5206956274369,"t":1306272.1250000002}],"stimX":1200,"stimY":[200]}
{"trial":"bonus","stimInds":[5,4],"rewardProbs":[0.4,0.4],"rewardPotential":[2,1],"rewardLevels":[-1,1,-1],"reactionTime":1195.5600000000559,"chosenStim":0,"timestamps":{"startFlyIn":1306735.8,"endFlyIn":1307234.815,"feedbackStart":1307921.5700000003,"trialEnd":1308166.2950000002},"fireEvents":[{"aladdinX":854,"aladdinY":507.27129060100106,"t":1307718.6250000002}],"stimX":1200,"stimY":[540,880]}
{"trial":"bonus","stimInds":[5,8,4],"rewardProbs":[0.4,0.8,0.4],"rewardPotential":[2,2,1],"rewardLevels":[-1,2,1],"reactionTime":1278.6100000001024,"chosenStim":1,"timestamps":{"startFlyIn":1308183.2900000003,"endFlyIn":1308681.5650000002,"feedbackStart":1309452.8,"trialEnd":1309696.7750000001},"fireEvents":[{"aladdinX":854,"aladdinY":496.55717033217934,"t":1309250.2000000002}],"stimX":1200,"stimY":[200,540,880]}
{"trial":"bonus","stimInds":[1,8],"rewardProbs":[0.2,0.8],"rewardPotential":[1,2],"rewardLevels":[-1,2,-1],"reactionTime":996.5750000001863,"chosenStim":1,"timestamps":{"startFlyIn":1309712.8900000001,"endFlyIn":1310213.5750000002,"feedbackStart":1310700.72,"trialEnd":1310946.36},"fireEvents":[{"aladdinX":854,"aladdinY":544.1950701482156,"t":1310498.6400000001}],"stimX":1200,"stimY":[200,540]}
{"trial":"bonus","stimInds":[4,6],"rewardProbs":[0.4,0.8],"rewardPotential":[1,0],"rewardLevels":[1,0,-1],"reactionTime":1245.2000000001863,"chosenStim":1,"timestamps":{"startFlyIn":1310961.4000000001,"endFlyIn":1311460.35,"feedbackStart":1312199.2500000002,"trialEnd":1312441.9400000002},"fireEvents":[{"aladdinX":854,"aladdinY":953.0498697168687,"t":1311997.5150000001}],"stimX":1200,"stimY":[540,880]}
{"event":"roundStart","roundType":"memory","time":"2016-09-19T12:46:15.427Z","timestamp":1312443.6800000002,"score":7000,"sandLevel":15}
{"trial":"memory","isCollectMismatch":true,"isProbeMismatch":true,"shouldCollect":true,"memoryLoad":4,"stimInds":[6,3,5,7],"stimAngles":[105,135,45,75],"probeStimInd":8,"trigPulled":0,"responseResult":4,"reactionTime":2192.464999999851,"timestamps":{"preCue":1313445.215,"contextCue":1313941.64,"firstDelay":1314438.925,"memoryArray":1315438.4100000001,"secondDelay":1316436.59,"responseProbe":1318432.9550000003,"feedbackStart":1320633.475,"trialEnd":1322293.6450000003}}
{"trial":"memory","isCollectMismatch":false,"isProbeMismatch":true,"shouldCollect":false,"memoryLoad":2,"stimInds":[1,5],"stimAngles":[135,75],"probeStimInd":3,"trigPulled":1,"responseResult":2,"reactionTime":2925.375,"timestamps":{"preCue":1322310.7100000002,"contextCue":1322810.77,"firstDelay":1323310.6600000001,"memoryArray":1324307.925,"secondDelay":1325307.3350000002,"responseProbe":1327302.02,"feedbackStart":1330233.83,"trialEnd":1331895.23}}
{"trial":"memory","isCollectMismatch":false,"isProbeMismatch":false,"shouldCollect":true,"memoryLoad":2,"stimInds":[0,1],"stimAngles":[105,75],"probeStimInd":0,"trigPulled":1,"responseResult":1,"reactionTime":1261.1149999999907,"timestamps":{"preCue":1331912.05,"contextCue":1332411.695,"firstDelay":1332910.155,"memoryArray":1333911.4350000003,"secondDelay":1334907.625,"responseProbe":1336904.3450000002,"feedbackStart":1338173.395,"trialEnd":1339833.37}}
{"trial":"memory","isCollectMismatch":false,"isProbeMismatch":false,"shouldCollect":true,"memoryLoad":2,"stimInds":[5,1],"stimAngles":[105,45],"probeStimInd":1,"trigPulled":1,"responseResult":1,"reactionTime":27270.825000000186,"timestamps":{"preCue":1339849.7200000002,"contextCue":1340350.67,"firstDelay":1340850.185,"memoryArray":1341847.2900000003,"secondDelay":1342845.8900000001,"responseProbe":1344841.465,"feedbackStart":1372121.07,"trialEnd":1373781.905}}
{"trial":"memory","isCollectMismatch":true,"isProbeMismatch":true,"shouldCollect":true,"memoryLoad":4,"stimInds":[0,4,8,7],"stimAngles":[105,135,45,75],"probeStimInd":5,"trigPulled":0,"responseResult":4,"reactionTime":1277.875,"timestamps":{"preCue":1373799.1900000002,"contextCue":1374296.6900000002,"firstDelay":1374795.46,"memoryArray":1375796.56,"secondDelay":1376792.5950000002,"responseProbe":1378789.635,"feedbackStart":1380074.29,"trialEnd":1381753.2000000002}}
{"trial":"memory","isCollectMismatch":false,"isProbeMismatch":false,"shouldCollect":true,"memoryLoad":4,"stimInds":[9,5,7,3],"stimAngles":[105,135,45,75],"probeStimInd":7,"trigPulled":1,"responseResult":1,"reactionTime":1526.9399999999441,"timestamps":{"preCue":1381770.2000000002,"contextCue":1382267.6150000002,"firstDelay":1382766.61,"memoryArray":1383765.47,"secondDelay":1384764.1150000002,"responseProbe":1386761.23,"feedbackStart":1388296.845,"trialEnd":1389955.28}}
{"trial":"memory","isCollectMismatch":true,"isProbeMismatch":false,"shouldCollect":false,"memoryLoad":4,"stimInds":[1,9,2,0],"stimAngles":[105,135,45,75],"probeStimInd":0,"trigPulled":1,"responseResult":2,"reactionTime":1078.7700000000186,"timestamps":{"preCue":1389973.7100000002,"contextCue":1390472.235,"firstDelay":1390972.0100000002,"memoryArray":1391969.6800000002,"secondDelay":1392967.1850000003,"responseProbe":1394964.6750000003,"feedbackStart":1396051.345,"trialEnd":1397709.865}}
{"trial":"memory","isCollectMismatch":true,"isProbeMismatch":false,"shouldCollect":false,"memoryLoad":1,"stimInds":[4],"stimAngles":[75],"probeStimInd":4,"trigPulled":0,"responseResult":3,"reactionTime":2291.144999999786,"timestamps":{"preCue":1397727.2200000002,"contextCue":1398227.0550000002,"firstDelay":1398726.995,"memoryArray":1399724.81,"secondDelay":1400723.7950000002,"responseProbe":1402720.0650000002,"feedbackStart":1405018.975,"trialEnd":1406682.105}}
{"trial":"memory","isCollectMismatch":false,"isProbeMismatch":false,"shouldCollect":true,"memoryLoad":1,"stimInds":[8],"stimAngles":[45],"probeStimInd":8,"trigPulled":1,"responseResult":1,"reactionTime":4588.40000000014,"timestamps":{"preCue":1406696.34,"contextCue":1407195.6750000003,"firstDelay":1407695.31,"memoryArray":1408694.735,"secondDelay":1409692.985,"responseProbe":1411689.4900000002,"feedbackStart":1416287.215,"trialEnd":1417945.2500000002}}
{"trial":"memory","isCollectMismatch":true,"isProbeMismatch":true,"shouldCollect":true,"memoryLoad":4,"stimInds":[2,8,0,6],"stimAngles":[105,135,45,75],"probeStimInd":5,"trigPulled":1,"responseResult":1,"reactionTime":9765.259999999776,"timestamps":{"preCue":1417963.78,"contextCue":1418461.53,"firstDelay":1418960.855,"memoryArray":1419959.225,"secondDelay":1420958.8950000003,"responseProbe":1422954.5200000003,"feedbackStart":1432728.1800000002,"trialEnd":1434404.37}}
{"trial":"memory","isCollectMismatch":false,"isProbeMismatch":false,"shouldCollect":true,"memoryLoad":1,"stimInds":[8],"stimAngles":[45],"probeStimInd":8,"trigPulled":1,"responseResult":1,"reactionTime":6950.514999999898,"timestamps":{"preCue":1434420.56,"contextCue":1434919.99,"firstDelay":1435419.2950000002,"memoryArray":1436417.7900000003,"secondDelay":1437415.79,"responseProbe":1439413.98,"feedbackStart":1446372.9500000002,"trialEnd":1448049.7950000002}}
